acc_x_1_mean,acc_x_1_std,acc_x_1_min,acc_x_1_max,acc_x_1_range,acc_x_1_median,acc_x_1_skew,acc_x_1_kurtosis,acc_x_1_energy,acc_x_1_rms,acc_x_1_entropy,acc_x_1_fft_peak_1,acc_x_1_fft_peak_2,acc_x_1_fft_peak_3,acc_y_1_mean,acc_y_1_std,acc_y_1_min,acc_y_1_max,acc_y_1_range,acc_y_1_median,acc_y_1_skew,acc_y_1_kurtosis,acc_y_1_energy,acc_y_1_rms,acc_y_1_entropy,acc_y_1_fft_peak_1,acc_y_1_fft_peak_2,acc_y_1_fft_peak_3,acc_z_1_mean,acc_z_1_std,acc_z_1_min,acc_z_1_max,acc_z_1_range,acc_z_1_median,acc_z_1_skew,acc_z_1_kurtosis,acc_z_1_energy,acc_z_1_rms,acc_z_1_entropy,acc_z_1_fft_peak_1,acc_z_1_fft_peak_2,acc_z_1_fft_peak_3,gyro_x_1_mean,gyro_x_1_std,gyro_x_1_min,gyro_x_1_max,gyro_x_1_range,gyro_x_1_median,gyro_x_1_skew,gyro_x_1_kurtosis,gyro_x_1_energy,gyro_x_1_rms,gyro_x_1_entropy,gyro_x_1_fft_peak_1,gyro_x_1_fft_peak_2,gyro_x_1_fft_peak_3,gyro_y_1_mean,gyro_y_1_std,gyro_y_1_min,gyro_y_1_max,gyro_y_1_range,gyro_y_1_median,gyro_y_1_skew,gyro_y_1_kurtosis,gyro_y_1_energy,gyro_y_1_rms,gyro_y_1_entropy,gyro_y_1_fft_peak_1,gyro_y_1_fft_peak_2,gyro_y_1_fft_peak_3,gyro_z_1_mean,gyro_z_1_std,gyro_z_1_min,gyro_z_1_max,gyro_z_1_range,gyro_z_1_median,gyro_z_1_skew,gyro_z_1_kurtosis,gyro_z_1_energy,gyro_z_1_rms,gyro_z_1_entropy,gyro_z_1_fft_peak_1,gyro_z_1_fft_peak_2,gyro_z_1_fft_peak_3,acc_x_2_mean,acc_x_2_std,acc_x_2_min,acc_x_2_max,acc_x_2_range,acc_x_2_median,acc_x_2_skew,acc_x_2_kurtosis,acc_x_2_energy,acc_x_2_rms,acc_x_2_entropy,acc_x_2_fft_peak_1,acc_x_2_fft_peak_2,acc_x_2_fft_peak_3,acc_y_2_mean,acc_y_2_std,acc_y_2_min,acc_y_2_max,acc_y_2_range,acc_y_2_median,acc_y_2_skew,acc_y_2_kurtosis,acc_y_2_energy,acc_y_2_rms,acc_y_2_entropy,acc_y_2_fft_peak_1,acc_y_2_fft_peak_2,acc_y_2_fft_peak_3,acc_z_2_mean,acc_z_2_std,acc_z_2_min,acc_z_2_max,acc_z_2_range,acc_z_2_median,acc_z_2_skew,acc_z_2_kurtosis,acc_z_2_energy,acc_z_2_rms,acc_z_2_entropy,acc_z_2_fft_peak_1,acc_z_2_fft_peak_2,acc_z_2_fft_peak_3,gyro_x_2_mean,gyro_x_2_std,gyro_x_2_min,gyro_x_2_max,gyro_x_2_range,gyro_x_2_median,gyro_x_2_skew,gyro_x_2_kurtosis,gyro_x_2_energy,gyro_x_2_rms,gyro_x_2_entropy,gyro_x_2_fft_peak_1,gyro_x_2_fft_peak_2,gyro_x_2_fft_peak_3,gyro_y_2_mean,gyro_y_2_std,gyro_y_2_min,gyro_y_2_max,gyro_y_2_range,gyro_y_2_median,gyro_y_2_skew,gyro_y_2_kurtosis,gyro_y_2_energy,gyro_y_2_rms,gyro_y_2_entropy,gyro_y_2_fft_peak_1,gyro_y_2_fft_peak_2,gyro_y_2_fft_peak_3,gyro_z_2_mean,gyro_z_2_std,gyro_z_2_min,gyro_z_2_max,gyro_z_2_range,gyro_z_2_median,gyro_z_2_skew,gyro_z_2_kurtosis,gyro_z_2_energy,gyro_z_2_rms,gyro_z_2_entropy,gyro_z_2_fft_peak_1,gyro_z_2_fft_peak_2,gyro_z_2_fft_peak_3,label
-0.21196705870000004,0.03673835003598537,-0.268798441,-0.144159466,0.12463897499999999,-0.2178341375,0.28210865600253404,-0.9354531742371344,0.4627974033729583,0.21512726544372712,2.163956875728627,0.0942726212541119,0.198527902463717,2.119670587,-0.9133567692,0.0380740830463641,-0.980897546,-0.871968269,0.10892927699999999,-0.8963390295,-0.7987798075533523,-0.8855112645494749,8.356702236432834,0.9141500006253259,1.609439328206832,0.11873467496310576,0.21457570934227202,9.133567692,0.11818016540000001,0.01264607880482557,0.10060557,0.133846015,0.03324044500000001,0.11746037,0.02464508365991236,-1.628558273874316,0.14126474803109218,0.11885484762141264,1.6957429902766983,0.017115542405625392,0.08429803078517707,1.181801654,-1.5329285144,4.88393098455889,-9.544975281,3.758603573,13.303578854,-0.12092888349999997,-0.38997078703006943,-1.47483868066027,262.0265169219497,5.1188525757434125,1.8868126616517946,8.082197220853919,15.329285144,32.16801316355301,9.2390822898,4.855037667561851,0.815266609,17.88697243,17.071705821000002,8.1142024995,0.10897718592121271,-0.6559960943930339,1089.3203231114044,10.437050939376526,1.9731358847739038,18.786911572856916,22.64004257693049,92.39082289800001,0.028283073000000103,1.480077215234108,-1.56778121,3.710343361,5.278124571,-0.192834772,1.319508405525669,1.1785880221340506,21.91428495273475,1.4803474238412666,2.163996397306909,3.0797597840296174,6.79560076709113,6.941195634383384,-0.1020114295,0.02304268027756116,-0.131147742,-0.055795372,0.07535237,-0.105008956,0.6553168335024251,-0.6624000478944199,0.10937296863007377,0.10458153213166929,2.0253270545053055,0.07917288505924391,0.1282175024914982,1.020114295,0.9195439218999999,0.05281877637394583,0.841617286,0.984745622,0.14312833600000008,0.9455871579999999,-0.3772879263960708,-1.5703030190866811,8.483508474408742,0.9210596329450521,1.8866984529835737,0.152769243231767,0.2981567460944265,9.195439219,-0.2521727011,0.026057535285612228,-0.303227484,-0.224880815,0.07834666899999998,-0.24345327900000002,-0.759125681142305,-0.8672339777978184,0.6427006632523087,0.25351541634628627,1.9730022766538386,0.07640262966615277,0.14794480672861599,2.5217270110000003,3.3159294128999997,2.8862091150614284,-1.131514072,8.706008911,9.837522983,2.677633047,0.33962720174890504,-0.9004897672938457,193.25590927199013,4.396088139152696,2.16402822094018,11.513352673388543,16.595453492650982,33.159294129,-13.924356555799998,3.128035319039757,-18.07105827,-8.237977028,9.833081242000002,-13.125915525,0.2024844279591707,-1.0119763910028452,2036.7231045021058,14.27138081792405,2.0254062778963413,11.50332862056754,16.230397470094136,139.243565558,-1.7377149640999998,1.5218285671135767,-4.079090118,0.29586792,4.374958038,-1.354404062,-0.27414356622956143,-1.4575393645942383,53.35615484140026,2.3098951240565073,1.8344135318579142,3.000820188126487,10.056628517516609,17.377149641,1.0
-0.248381734,0.02295841659837731,-0.285366833,-0.200457603,0.08490922999999997,-0.249137059,0.43621169290332057,-0.22241881116771456,0.6222057467755141,0.24944052332680713,1.8866978031914077,0.07621181924578374,0.12130590912901323,2.48381734,-1.0172600864999999,0.0977252260985829,-1.193826795,-0.884663105,0.3091636900000001,-1.0013986825,-0.2457963287222545,-0.9894593268210614,10.443683034020069,1.0219433954001595,1.8867002335538121,0.2658470349338167,0.6055359755254868,10.172600865,0.08739652630000001,0.054589218790059825,-0.053729929,0.133846015,0.18757594400000002,0.0968918875,-1.545264503562916,1.6714863664536983,0.10618135617415612,0.10304433811430695,1.6434200789103774,0.16632892618773382,0.251258076783667,0.8739652630000001,-6.424318861500001,2.7633082403179556,-11.39362907,-2.22418499,9.16944408,-6.199700117000001,-0.2363578101837941,-1.032907718285766,489.0774526523378,6.993407271511775,2.16402364773489,9.59285247059529,13.624598462881261,64.24318861500001,3.0735938669,3.485006488714189,-1.716047883,8.073429108,9.789476990999999,2.842912793,0.18253840719382425,-1.28363037146681,215.92249485025295,4.6467461179867895,2.0254059489949743,7.896799181997937,21.36176752090193,30.735938669,5.0442652404,5.249934136119291,-1.56778121,13.47704506,15.04482627,5.7258388995,0.03900696070493419,-1.4639661711449279,530.0642024909828,7.280550820446093,1.6958845693414393,9.902573031393105,35.17547656417477,50.442652404,-0.11283267150000001,0.01668359848076693,-0.132005677,-0.073648587,0.058357089999999986,-0.1181776785,1.0358428660229886,0.44157114722712176,0.1300955421609436,0.1140594328238325,2.163956251913075,0.05671639929527276,0.08565142529340454,1.128326715,1.0283019662000001,0.08425096576964905,0.943318903,1.2048558,0.26153689700000005,0.982554734,0.807965682124365,-0.6404347180786005,10.645031589239045,1.0317476236579877,2.025328919267011,0.18589625453781192,0.5083884392036717,10.283019662,-0.260726069,0.04713292718486051,-0.339656472,-0.172005773,0.167650699,-0.2653375865,0.1897391159516648,-0.7137030369707618,0.7019959588120613,0.2649520633646889,2.3025865427138656,0.18235790695459592,0.19184733916260432,2.60726069,1.9157785832000003,4.336173257791507,-8.851675034,6.528722763,15.380397797,2.8689103124999997,-1.3088134642131526,1.0756457553279226,224.72606101434008,4.740528040359429,2.025447313222019,17.958503489459773,18.698488542190493,19.157785832000002,-6.3339193223,6.082702872181099,-13.1749897,4.882478714,18.057468414,-7.130230903499999,0.5470330981802053,-0.9683678980134545,771.1780821264548,8.781674567680442,1.9731430415526479,15.14312030203248,39.843838062752546,63.339193222999995,-2.4516372976999996,1.4705584434663048,-4.079090118,0.617110908,4.696201026,-2.7872412205,0.8550090977116434,-0.3432179615604465,81.73067575123801,2.8588577395742867,1.6957906978618966,6.023947780050613,7.149640030927294,24.516372977,1.0
-0.22205041209999998,0.03761055878927629,-0.285366833,-0.177355826,0.10801100699999999,-0.200457603,-0.407813481215043,-1.4151797727941031,0.5072093964622143,0.2252130983007459,1.6094393169119894,0.10113142778439402,0.2214161141804284,2.2205041210000003,-1.054691696,0.06827888530077618,-1.193826795,-0.938656449,0.2551703460000001,-1.043207228,-0.4233064887305879,-0.198177130754996,11.170365797892732,1.0568995126260932,1.9730040599966778,0.23412847085098012,0.33057063446226276,10.54691696,0.00026837459999999797,0.06374194632289114,-0.091111727,0.08487583,0.17598755700000002,-0.0192778025,0.17583367547482834,-1.5765539467843483,0.040631077459562605,0.06374251129314142,1.6434199410208001,0.09457719018470863,0.14347848924531809,0.4149659608683028,-5.0510725971,2.730991796806249,-11.39362907,-1.698460817,9.695168252999999,-4.319091797,-1.1987603946041308,0.5008285847705904,329.71650575397564,5.742094615677938,1.6958370468202935,7.146046739633799,15.711782343595036,50.510725971,-1.1724654556,3.3386481861636024,-8.184238434,3.075018406,11.259256839999999,-0.4572241305,-0.7456208787265224,-0.3284001608330289,125.21246955548827,3.5385374034406967,1.6958511152972984,8.10402463832555,11.724654555999999,20.80224713185969,7.218973588900001,3.7212550459570783,1.146739483,13.47704506,12.330305577,8.195015907,-0.28380388716355803,-0.8650137060651986,659.6131879429676,8.121657392078095,1.8344808013816476,17.10161975723947,19.223841508139287,72.18973588899999,-0.052532516499999994,0.061184317732707716,-0.132005677,0.049547717,0.18155339399999998,-0.0545488225,0.34214306419373003,-1.2397363673787074,0.06503186026239705,0.08064233395828585,2.025328133772808,0.1073293619889802,0.40490374008666125,0.525325165,1.0345271291,0.08555493241923401,0.895973623,1.2048558,0.308882177,1.0229575635,0.36998273061043563,-0.5238456816709061,10.775660273051479,1.0380587783479065,2.163958523268056,0.3090300675587872,0.4050030313857954,10.345271291,-0.22772903590000002,0.05885387998877743,-0.339656472,-0.172005773,0.167650699,-0.20496423549999998,-0.8115043637242262,-0.9803362551335222,0.553242929816769,0.2352111667877971,1.973003192103168,0.2124483098542787,0.33300178469137864,2.2772903589999998,-3.8011137905000005,4.888655237611685,-8.851675034,5.392455101,14.244130134999999,-5.716390371499999,0.6102227876285591,-1.0780295971109244,383.4741608055743,6.192529053670837,1.9731151590602072,9.131359644933596,31.337169803118424,38.011137905,-0.5855280518,5.038059559098892,-6.355459213,7.495151997,13.85061121,-0.5013088585000001,0.15320526237759619,-1.5163449687580404,257.2488722047242,5.071970743258721,1.9731122493019826,13.579424488220296,17.708140145749603,26.15871835254366,-3.0668395579000003,1.954753214338364,-6.713724613,0.617110908,7.330835521,-3.488754988,0.25611832789962846,-0.13498123020129205,132.26565002866434,3.6368344755936355,2.0253871973927753,6.579480367624251,9.990631468359215,30.668395579,1.0
-0.1978381814,0.017619053849579108,-0.228271514,-0.177355826,0.050915688000000014,-0.19977927950000002,-0.26881336299055314,-1.2774845330783016,0.3945037707821367,0.19862118990232053,1.6957432176091793,0.0486009630937996,0.1054270312517027,1.978381814,-0.9336610614000002,0.08586515324042368,-1.064514637,-0.804960966,0.25955367100000004,-0.9185780880000001,0.05156046059131245,-1.2728650926336087,8.79095802115576,0.9376010890115134,1.8866997096347389,0.09712172031459142,0.5894608141904238,9.336610614,-0.011383259000000001,0.04218927599703123,-0.091111727,0.046688553,0.13780028,0.005513492,-0.4703066297643135,-1.0228908855149568,0.01909513594614757,0.043697981585134535,1.8343735890929687,0.07659109850429074,0.11383259000000001,0.27439734210032246,-0.7490489722,3.0505073643607727,-4.319091797,3.356118441,7.675210238,-2.130463481,0.29995536163800335,-1.6313056545507945,98.66669542773184,3.141125521651942,1.6958186107614768,7.4904897219999995,8.134907688856563,17.404411950589324,-4.4322511912,4.707778458451752,-13.03902721,0.622464299,13.661491509000001,-3.51924479,-0.561262706962322,-1.065063134081369,418.0802863575617,6.465912823086635,2.0254347515832896,7.848901900803787,31.354640191480964,44.322511911999996,7.8164279468,4.862631773927282,1.146739483,14.31123924,13.164499757000002,8.195015907,0.12265551056385467,-1.4142001081958513,847.4173361632326,9.205527340479918,1.6958680480824069,4.763600656222805,33.43740633962391,78.16427946799999,-0.0775216173,0.090606084360743,-0.197562158,0.049547717,0.24710987499999998,-0.046392577000000004,-0.09888899189001712,-1.5498643486908412,0.14219063671993737,0.11924371544024338,2.0253287788242287,0.12175720371096681,0.6245439269439799,0.775216173,0.8918938876,0.11082611240104562,0.695247471,1.032074213,0.33682674200000007,0.9146216215,-0.587493893479928,-0.9495408393373062,8.077571339281706,0.8987530995374484,2.163958766545183,0.2819330663800949,0.7122145612955216,8.918938876,-0.1869827255,0.014874001342582814,-0.213088393,-0.166774154,0.04631423899999998,-0.18146249650000001,-0.2914195894939169,-1.1753405013737188,0.351837755513475,0.1875733871084795,1.886697358470287,0.03551847177628489,0.09420313916980404,1.8698272550000001,-4.2319996597,4.176031627324875,-8.185837746,3.933820724,12.119658470000001,-5.1677196025,0.9711411398038505,-0.43864934236194086,353.49061272118564,5.945507654701872,1.8344790779091151,17.48056269541076,21.22648783926706,42.319996597,-1.1431689500000002,5.094650032669022,-6.355459213,7.495151997,13.85061121,-2.9755325315,0.4827864577320332,-1.3750099020446875,272.6229420361857,5.221330692804141,1.9731122493019826,10.818616851211269,11.431689500000001,33.90644881477704,-6.559314108300001,2.481862603091918,-10.61143494,-3.488754988,7.122679952,-7.0596950055,-0.06715329346907266,-1.4141359764174364,491.84243551969615,7.0131479060383155,2.025385589104749,3.9033922324295633,16.766169922549473,65.59314108299999,1.0
-0.2373465002,0.03889421910997649,-0.294331878,-0.177396983,0.11693489499999998,-0.2311890795,0.05984269945595034,-1.237001015805898,0.5784612143736346,0.2405122064207209,1.8866981630319073,0.12192020277003617,0.20978049407569255,2.373465002,-0.9337099312999999,0.09497848717465007,-1.107942104,-0.804960966,0.3029811379999999,-0.9065111575,-0.4276816313143394,-0.8558201436137689,8.808351488342359,0.9385281822269568,2.025329320141876,0.33291325626856255,0.5543385931281858,9.337099313,0.011130475600000002,0.016861194501730806,-0.015120309,0.046688553,0.061808862,0.011363545999999999,0.5058202554647322,-0.2117303898141425,0.004081873671073926,0.020203647371387985,2.1639562851551033,0.05187080328357504,0.09667753782888586,0.111304756,1.6870605469000002,2.468455993628599,-2.562466145,3.891401291,6.453867436,3.1834186315,-0.807708811892633,-1.0632674434640181,89.39448281387482,2.9898910149681845,1.6958072878873707,9.62864717158828,12.458669799107904,16.870605469,1.6565577271999998,8.833843764452748,-13.03902721,16.34694672,29.38597393,2.886027515,-0.21628690318132415,-0.9225527920008956,807.8097915830674,8.987823938991392,1.8869376021047426,26.087707443609084,28.750442957639354,46.02186500386624,7.339586383900001,4.969870949548353,0.501901448,14.31123924,13.809337792000001,5.6530432704999996,0.34563486304966967,-1.3765199522811644,785.6914554189494,8.863923823109884,1.6435498406190978,8.534591949036633,33.47814963662626,73.395863839,-0.17027913220000002,0.041084727641670316,-0.202533707,-0.057336096,0.145197611,-0.18477384,1.9273268815293372,2.822493245400879,0.30682937708175306,0.17516545809084424,1.695744376642756,0.14277513523564175,0.21124658396664966,1.702791322,0.9090907572999999,0.12751595599716437,0.695247471,1.114735246,0.419487775,0.924416959,-0.3027895131816502,-0.8909058531489973,8.427063240421584,0.9179903725214978,2.0253304300644785,0.4799076637338055,0.7009280051457175,9.090907572999999,-0.19783809930000001,0.03972836863317456,-0.272093356,-0.148574769,0.12351858700000001,-0.191246949,-0.49626999025682034,-1.0400790577672443,0.4071825680889007,0.20178765276619395,1.8866982362397087,0.1580643634248456,0.2041499851638225,1.978380993,3.8089314229999998,6.834683503359078,-5.582017422,17.17686081,22.758878232,3.5035972595000002,0.35750375852548866,-0.6910926734214002,612.208571762055,7.824375833010931,1.7482740966479484,28.303333632387883,32.61058652856835,38.08931423,-6.919580315799999,5.512589449145071,-13.50762367,5.497618198,19.005241868,-7.744982480999999,0.8842803234849492,0.007928465452136546,782.6923418163237,8.846990119901365,1.8868579172978754,14.26781618932015,31.126396040003275,69.195803158,-8.161388159200001,1.1242567898572733,-10.61143494,-6.253551483,4.357883457000001,-8.020681858,-0.5940256462610556,0.25136191762000815,678.7221001467016,8.238459201493333,1.886737904396973,3.784325089215347,5.9268283426530255,81.613881592,1.0
-0.23555088050000003,0.044160957707758935,-0.294331878,-0.168473125,0.125858753,-0.2422063725,0.32878681675476135,-1.2855319476859193,0.5743440748999176,0.23965476730078156,2.0253275745942236,0.04946381686961419,0.30256760573863944,2.355508805,-1.0114117859999998,0.09977443141813087,-1.193264842,-0.900151551,0.29311329100000005,-0.979237914,-0.4859209364399662,-1.2350491524519416,10.329087380245213,1.0163211785771864,2.025329225021133,0.2289500788042051,0.6280848853452002,10.11411786,0.0317599626,0.03761595666966004,-0.015120309,0.092699371,0.10781968,0.019480598,0.3129090606491036,-1.5010821119745874,0.024236554205271404,0.049230634979930334,2.163956719848799,0.03978933409511149,0.25598808049222227,0.317599626,4.22700144,4.999678999359868,-2.41353035,13.20099258,15.61452293,3.6726027730000004,0.3920887871723449,-1.0488842308452837,428.6433127040217,6.547085708191253,2.02544901496453,21.956657131822574,23.675961262943538,42.2700144,8.645016551000001,4.836485588729105,1.270504236,18.21048164,16.939977404,7.537267685,0.756338249789474,-0.24754205128361173,981.2790401704825,9.905952958552158,1.8345179899098727,23.1767327760719,23.20866871183042,86.45016551,-1.9577198685,6.52755847163211,-13.96773148,7.07860899,21.04634047,-1.6805729565,-0.48163306114088933,-0.8721843089107071,464.41686684095794,6.814813767381747,1.8345504161173358,18.578773290066124,19.577198685,40.091143533258766,-0.1503291055,0.03856965926509072,-0.202533707,-0.100641049,0.10189265800000001,-0.1494462935,-0.015931930899469496,-1.402146467454085,0.2408645857625533,0.15519812684518886,1.695743852389711,0.06407955764057038,0.26031077254991597,1.503291055,1.044858855,0.08762575381151985,0.932697415,1.193232775,0.26053536,1.021678388,0.64608976665777,-0.8981298587643907,10.994082996029482,1.048526728129974,1.7480705305835944,0.16119198535978288,0.5712995731239974,10.44858855,-0.24171560249999996,0.05740144191107109,-0.365822732,-0.148574769,0.217247963,-0.242774218,-0.24720924346357848,0.4243874066948594,0.6172135802540807,0.2484378353339283,1.4708114025814758,0.1989580917628291,0.24624158706842555,2.4171560249999997,6.8039677962,5.671686405623394,0.092146367,17.17686081,17.084714443,6.8941147345000005,0.25813190162677313,-1.2201695551763354,784.6200445545991,8.857878101185403,1.6959023066018282,8.220770036935118,36.88868592302842,68.039677962,-11.2939188001,2.226153803828844,-16.20021439,-8.358644485,7.841569905,-11.27700615,-0.6762244997563995,0.08646561110030682,1325.0836262155385,11.511227676557954,1.886767780983302,7.609315006131631,10.089084301130319,112.93918800099999,0.1472816942999998,7.764393506519273,-8.22918129,8.685442924,16.914624214,0.29168677349999994,0.004949037060598795,-1.9606524217880987,603.0749842155452,7.7657902638144,1.504960195015515,5.302224264707217,19.731890386538176,49.84441861009405,1.0
-0.21276613640000003,0.03504415567161452,-0.271791518,-0.168473125,0.10331839300000001,-0.213149816,-0.1777894297497794,-1.2817417890009755,0.46497521645319756,0.2156328399045928,2.025327344368092,0.028385339295358938,0.24406080556196927,2.1276613639999997,-0.9343024432,0.11758175511060383,-1.193264842,-0.84354794,0.34971690200000005,-0.884984702,-1.3567788244599497,0.2120222813729038,8.867465245043794,0.9416721958857973,1.609442172221442,0.417859888830992,0.574895937290678,9.343024432,0.0396425521,0.0336197059003934,-0.009137608,0.092699371,0.10183697900000001,0.0383084545,-0.043729753488661434,-1.2250099287708027,0.027018165618301608,0.051979001162297846,2.0253273291400107,0.05951780481288213,0.22469080144925965,0.39642552099999995,3.0942546630000005,5.358722560972007,-1.444239259,13.20099258,14.645231839,-0.3323053565,0.8484746083617942,-1.0277834458378354,382.9031940496762,6.187917210578016,1.504938712791186,18.05442126629859,30.94254663,31.433537924363733,10.901159256499998,7.502801734402929,0.521758497,21.73259735,21.210838853,9.165173054,0.11071529787150809,-1.4783671880889815,1751.2730700133525,13.233567432908455,2.0254891258931838,29.672368970855604,34.99364805850799,109.011592565,-3.2124066950999994,5.276927904851129,-13.96773148,1.34461689,15.312348369999999,-1.5472968814999999,-0.9521109111434041,-0.46115054501211494,381.65524887719823,6.177825255518306,1.3593961491477389,16.51095571697911,29.19520850187446,32.124066950999996,-0.0972501475,0.029349252172165417,-0.139815405,-0.048945416,0.09086998900000001,-0.100641049,0.21570924935517513,-0.8027746636025053,0.10318969791837113,0.10158233011620235,1.4708097597138021,0.10292326141183329,0.17363607322342012,0.972501475,0.9782576381,0.1258078773210768,0.822912812,1.193232775,0.37031996300000003,0.9573135375,0.608909682525978,-0.8624519499492611,9.728156284970257,0.9863141631838335,1.8867008723394318,0.40938104938029907,0.6829082131441769,9.782576381,-0.25322815019999995,0.05101556492679797,-0.365822732,-0.171905994,0.19391673799999998,-0.242774218,-0.8256277447493446,0.3208823843227284,0.667270839185141,0.258315860756776,1.834374205261752,0.17223811145810616,0.2859251054746746,2.532281502,0.10093904199999999,6.218004875588311,-6.675299168,11.36277962,18.038078788,-0.0278307495,0.8591364497760409,-0.5261494430292939,386.7377332303989,6.21882411095859,1.3323754725365216,16.699990309753222,22.606878113673314,32.67655370830662,-11.755596399599998,4.785797939297766,-17.69857025,-2.138796329,15.559773921,-11.27700615,0.40621670412087807,-0.7500875117969823,1610.9790862607522,12.692435094420425,1.7482128406469197,12.304051315424664,29.35903289621027,117.555963996,6.3795191109000005,2.330057255610419,0.718789876,8.685442924,7.966653048,6.83692503,-1.3093630307158306,0.8718020268765647,461.2743090076109,6.791717816632335,1.8344445485749978,9.220228733280114,9.811875840701141,63.795191109,1.0
-0.2502742948,0.035319526596038445,-0.29022944,-0.175482392,0.11474704800000002,-0.268627748,0.920981601693394,-0.4640314805814425,0.6388469159660558,0.25275421182762825,2.0253274614326724,0.09993721967350185,0.19143718750488398,2.502742948,-0.9197261332,0.10764914544135602,-1.154018402,-0.84354794,0.31047046199999995,-0.8628441394999999,-1.3598360841737978,0.15502207267353674,8.574844986052783,0.9260045888683697,1.497869986322089,0.38049662205296786,0.5745971303396548,9.197261332,0.027972422200000003,0.03413520652152897,-0.023673585,0.091778539,0.115452124,0.0381425135,0.18116500965445675,-0.8545781187687744,0.019476687280024867,0.04413239998008817,1.8343733398365933,0.10152391643676749,0.18325521090713312,0.279724222,-2.1816550433,2.747155956647256,-8.605524063,-0.271906316,8.333617747,-0.6589908305000001,-1.4182278659921834,0.4953328894570288,123.06484578098825,3.5080599450549337,1.4979502731367806,9.145020232253422,15.018855969605095,21.816550433,5.361447847199999,10.181778466672533,-4.15727663,21.73259735,25.889873979999997,0.521758497,0.5784442621876066,-1.38253692652254,1324.1373576264202,11.507116744112837,1.471064372031665,27.264914998516414,53.614478471999995,62.88366734509912,4.1955792784,4.226806119580963,0.768453598,11.88576603,11.117312431999999,1.3364504575,0.8183510244064267,-1.1270720564623682,354.68775453866544,5.9555667617672245,1.6095464082808242,13.47910234883917,26.05558446445466,41.955792783999996,-0.0884727243,0.027754700956528808,-0.134037077,-0.048945416,0.08509166100000001,-0.092434369,0.05683191052643962,-1.2425407807982687,0.08597746370250152,0.09272403340154133,2.1639565068581863,0.11147610589547909,0.1423995356143075,0.884727243,0.9245432732000001,0.08726584629602938,0.822912812,1.10169661,0.2787837980000001,0.8911654945,1.0058786510119435,-0.2862147844323335,8.623955919491323,0.928652567944079,2.1639582596791396,0.21673435426197102,0.5351687209214943,9.245432732000001,-0.2594508364,0.04427075796578241,-0.318551123,-0.171905994,0.14664512899999999,-0.26579150549999997,0.39152913568107794,-0.6942618140064956,0.6927463651952444,0.26320075326549586,2.1639570778131305,0.09632129180091435,0.2753382346041768,2.594508364,-2.6524387508000005,2.861197014559556,-6.675299168,1.769127369,8.444426537,-2.866456866,0.14534519011676708,-1.3291002847581723,152.2187968286998,3.9015227389917873,2.1640186543771924,11.190295288798971,13.917140070655002,26.524387508000004,-4.528334298199999,9.592326503072115,-17.69857025,10.60997868,28.30854893,-1.480086684,-0.060565415281809316,-1.2327705078466675,1125.185392577942,10.607475630789551,2.025538734169495,35.55027263146814,45.28334298199999,52.689456815541696,-0.6573431431,6.008744026583266,-9.82706356,7.285536289,17.112599849,-1.1782331165,-0.007485201525376164,-1.5324799440234946,365.3710478478068,6.044593020607812,2.1640766724187666,11.043587585688691,12.84240050902081,38.040763391841445,1.0
-0.2766568244,0.010484463463378273,-0.291888982,-0.254709244,0.03717973800000002,-0.27835831050000004,0.5075396110546001,-0.2089851895906505,0.7664892246120736,0.2768554179733663,2.025326647903289,0.04727937763679325,0.048379829896671535,2.766568244,-1.0570541739,0.13891799029387508,-1.270532608,-0.84354794,0.4269846679999999,-1.0565238,-0.1402368922963488,-1.0756515460090956,11.366617345867004,1.0661433930699475,2.025330500752936,0.3127286065996668,0.8606191657445205,10.570541739,0.00035228230000000085,0.057778225397220495,-0.075902566,0.091778539,0.167681105,0.006466212,-0.04910069037016573,-1.3397494941249126,0.03338447432870908,0.057779299345621246,1.8343739187277033,0.09720381759814807,0.23075294272256675,0.31818155821250654,-2.6747813670999996,3.896800266246369,-8.860245705,3.473464489,12.333710194,-1.7408109605,-0.29712051887127033,-1.0552882649759059,223.39507676803117,4.726468838023067,1.8868048208369954,11.711043961396106,24.025626876406786,26.747813671000003,-5.3471543848,3.178764136011713,-10.49313736,0.521758497,11.014895857,-4.134262323,-0.03713519416583854,-0.7725486630836147,386.9660144728016,6.220659245391935,1.6958489279540583,12.226138611233774,15.90057758038565,53.471543848,3.0812335134,5.445363550971835,-4.222278595,11.88576603,16.108044624999998,1.8132557870000001,0.26334416700832286,-1.1877942254596372,391.459841663519,6.256675168678002,1.886835085996427,19.76306090042622,30.812335134000005,32.44690648240316,-0.0780196897,0.053617022893896756,-0.134037077,0.029172992,0.163210069,-0.10256879399999999,1.0862434729637458,-0.33857594045439887,0.08961857124888935,0.09466708575259372,1.9730031474331597,0.16761669442587818,0.2908967933868086,0.780196897,1.0342783091999999,0.09958051038195823,0.874949694,1.18237412,0.307424426,1.0765445825,-0.3541102262648189,-1.245658267246898,10.796478989295421,1.0390610660252564,2.163958510540191,0.34585691647484457,0.5204852591363438,10.342783092000001,-0.24878950849999998,0.04444351553183838,-0.317891836,-0.155990973,0.16190086299999998,-0.25594581650000003,0.48766587142037615,-0.31722129103107743,0.6387144561250033,0.25272800717866695,2.025327937825828,0.12516243432626817,0.26004269385591056,2.487895085,-0.8371801077000003,2.5131237521135703,-5.452923775,3.230907202,8.683830977,-1.1134888825,-0.16016957985299676,-0.8219742162915247,70.16661526165971,2.6488981721021236,2.1640203068580144,8.371801077,10.868531776246122,11.985782073791265,5.682062372700001,4.935300746702595,-0.821377039,13.19049263,14.011869669,7.2365322115,-0.08087407103424625,-1.4930258904765479,566.4302626765634,7.526156141594216,1.8868183585066496,22.184357110856087,23.11955176684744,56.820623727,-2.2669950483999997,5.1556196328898825,-9.82706356,5.336287022,15.163350582,-4.112921357,0.3384791455183629,-1.285627891600496,317.19680348509723,5.632022758166885,2.0254457337005674,18.51383045537872,22.669950484,29.37286299903894,1.0
-0.24463943980000008,0.03412644305683817,-0.291888982,-0.206799775,0.08508920700000003,-0.23705695599999999,-0.1384963852277067,-1.7923388693567168,0.6101306962136943,0.24700823796256155,1.6957436457320776,0.05922561022774743,0.2141472508958415,2.446394398,-0.9921850264,0.1716599831728577,-1.270532608,-0.770937026,0.49959558199999987,-1.0112571715,-0.3623606071137215,-1.1032753600721592,10.138982764352745,1.0069251593019584,1.6957484415983253,0.6051062791704003,0.9109971127730564,9.921850264,-0.0264310275,0.03777931266513367,-0.075902566,0.021485996,0.09738856200000001,-0.011089731,-0.2614409297267274,-1.688546128062091,0.021258756801556852,0.04610721939301572,2.02532728333437,0.12313120876215485,0.21260204857428092,0.264310275,2.1923337699000003,5.642209910968854,-8.860245705,9.28023243,18.140478135000002,1.9175194205,-0.39662272800568515,-0.8180068949241042,366.40860038079114,6.053169420896718,2.025467246983539,21.923337698999998,23.280831856290316,26.084825220766568,-11.0116877089,5.7183049546865465,-21.33716774,-3.446989536,17.890178204,-9.700823786,-0.8235700317867164,-0.46720120366683426,1539.5627775313205,12.407911901409198,1.886849166673016,22.993396077609752,32.36369053383876,110.11687708900001,3.0891695140000004,6.628695664972039,-4.222278595,14.5943737,18.816652295,1.8132557870000001,0.5080320587397611,-1.029741338091747,534.8257450504609,7.313178139840851,1.6959172312016515,14.780010790299967,30.891695140000003,39.69922571687279,-0.08908758759999999,0.0706713322162642,-0.179623067,0.029172992,0.208796059,-0.105604563,0.3522123119552427,-1.1227488913330406,0.12931035461609258,0.113714710840811,2.025328403310069,0.11970680139981597,0.4679811927308761,0.8908758760000001,0.9736193716000001,0.13508673165053525,0.775538385,1.18237412,0.4068357349999999,0.9676131305,0.03232017909933582,-1.4377608360456935,9.661831058228026,0.9829461357687931,2.1639593706293603,0.44313112472032623,0.7660237255712108,9.736193716,-0.1912122055,0.03237972087304523,-0.253843039,-0.155990973,0.09785206599999999,-0.17872303,-0.5286617112799326,-0.9960113163323006,0.3761055385599056,0.19393440606553175,1.8343731415753115,0.12189215020953503,0.13360534270507707,1.9121220550000002,0.6988657832999999,3.41155552524603,-5.452923775,5.483244896,10.936168671,0.1942400635,-0.1474887627418402,-1.1017233847361025,121.27124484904238,3.4824021141884574,2.302656814832282,7.853037430306249,15.748117548218591,15.804136194949681,6.141522526800001,6.073419644967892,-4.579297543,13.57243538,18.151732923,7.390114546,-0.42991537363147797,-1.1339042868569957,746.0472513107378,8.637402684318578,2.164083432228346,23.323692525433717,29.719465643869437,61.415225268,-5.0748111002,7.729498090798085,-15.39254951,5.336287022,20.728836532,-6.1085488795,0.09099118155368335,-1.465443986246041,854.9884843836437,9.246558734922111,1.834547928954963,22.483887534766193,47.1964460892405,50.748111002,1.0
-0.2320254936,0.02162926185988725,-0.262402683,-0.206799775,0.055602908000000034,-0.229674265,-0.20606463004502149,-1.617068953154871,0.5430365464892722,0.23303144562253228,1.8866974669464032,0.04219445530645277,0.13775207813682316,2.320254936,-0.8761650801,0.08303602236744118,-1.038501263,-0.770937026,0.26756423699999987,-0.8515280785,-1.0626942291240202,-0.16592671826501926,7.745602285972456,0.8800910342670499,1.8866997946214306,0.2952578881294198,0.4495272185025643,8.761650801,-0.007328441200000001,0.019672321814395665,-0.062215507,0.009214397,0.071429904,-0.003704965,-2.0192979018386072,3.1816427574418897,0.004407062959910051,0.020993005882698295,1.7480682856546352,0.06448775755324204,0.073284412,0.08459302372531016,3.7820583613000003,3.7392799635036824,-1.695494056,9.28023243,10.975726486,3.0617984535,0.21834239645044834,-1.3531882163767184,282.86180093739347,5.31847535424762,1.886793758006131,9.761903788444364,21.814528828043617,37.820583613,-5.8627488325,9.610969731570794,-21.33716774,6.259105682,27.596273422000003,-2.8900574150000002,-0.47683282809460614,-1.2095602479489744,1267.4256305415006,11.257999957992096,2.02553380915995,25.27817996737277,58.627488325,60.91632305589349,8.2137548926,5.809299747075458,-4.153558254,14.5943737,18.747931954000002,9.361497879,-0.8621132360869685,-0.3266785540832289,1012.137329870814,10.060503614982771,1.8868559018902984,11.087353550801868,36.815213188306025,82.137548926,-0.1426134906,0.04830298694379411,-0.179623067,-0.029751644,0.149871423,-0.162815064,1.5154277129086442,0.6383415988895074,0.22671786248808634,0.15057153199993892,1.6094398268643721,0.19806014147832404,0.24051316481872742,1.4261349060000001,0.8706962645,0.04469460970327022,0.775538385,0.941394448,0.165856063,0.882023096,-0.6816796725178046,-0.0722787771076332,7.601095931507817,0.8718426424251005,1.8343738987006075,0.16173921481186598,0.25995538391785006,8.706962645,-0.17217857540000003,0.012592197714456592,-0.190588683,-0.156321287,0.034267396000000006,-0.1751428695,-0.07320514258215188,-1.3750145045189412,0.29804025270053447,0.17263842350430986,1.8343724038350093,0.043991794483854055,0.07680757263062309,1.721785754,2.6450239359000003,2.4782730700703453,-2.401572704,5.483244896,7.8848176,3.1171280145000004,-0.6980226370140029,-0.6597052416119968,131.37989031319822,3.6246363998779,1.834443855956739,6.2963615853010175,14.587220702356664,26.450239359,-2.0040209051,8.205705867736187,-9.987605095,13.57243538,23.560040475,-4.9873006345,0.8501730291325906,-0.7166974493311127,713.4970857587791,8.446875669493302,1.8345700008059134,20.040209050999998,29.797855478183948,45.435969507127986,-11.8959032046,2.6857943974211773,-15.39254951,-7.066511154,8.326038356000002,-12.703752994999999,0.4060639411919231,-1.1806736561049689,1487.2600459843154,12.195327162418872,2.0253948393236088,5.899525864245268,17.31417079361747,118.959032046,1.0
-0.2957791477000001,0.04541490869169123,-0.36645025,-0.239943862,0.12650638799999997,-0.29276898500000004,-0.11151220142309286,-1.631367413628669,0.8954781814561307,0.2992454145774218,1.695744151665108,0.1302089850869544,0.27404283656414474,2.957791477,-0.8980965316999999,0.10072205442419993,-1.119442463,-0.777895093,0.3415473699999999,-0.872645259,-1.0046805260276948,0.07118096861565393,8.167223124990006,0.9037269015023291,2.025329690104697,0.3831293411773176,0.4719187397208763,8.980965316999999,-0.002339293599999999,0.01899953824014583,-0.025587253,0.046386234,0.071973487,-0.003937636,1.325360833311168,1.776091797871448,0.003664547478857646,0.019143007806657883,1.7480682924040978,0.06188970823731456,0.07493495561917397,0.0751453513144956,1.3453027233000001,3.6297515401367813,-6.72550869,7.623240948,14.348749638000001,0.598152697,-0.4611407222436981,0.48050912033577786,149.8493566044373,3.871038059803046,1.6958784737091197,13.453027233,14.113449666220896,15.80435421850906,7.570534307199999,6.264295156774821,0.24236232,17.96134949,17.71898717,5.305553436,0.5358868874798772,-1.268909043239951,965.5438350768464,9.826209009973512,1.9731405878630175,13.451611069910074,42.045876989422844,75.705343072,1.0398953680000005,8.843697052888846,-9.973184586,13.7432766,23.716461186,-1.6356307270000001,0.21164739422173495,-1.6288734583781375,792.9235993966272,8.904625760786509,2.164119115157064,16.357954690701394,25.409115642742123,53.98502098110596,-0.18082283729999998,0.020670414652428307,-0.222217336,-0.162632301,0.05958503499999998,-0.168725133,-0.7268025284641403,-0.935273544382174,0.331241645311256,0.1820004520080255,1.7480680873443866,0.050063982784294685,0.12539424187120912,1.808228373,0.9074523389000001,0.041912589049417366,0.854093015,1.014750481,0.16065746600000008,0.900003165,1.4246829293064847,1.6247688043672417,8.252264124959058,0.9084197336561475,1.834373841581769,0.13745809441691192,0.16880222033441644,9.074523389,-0.1684616246,0.03424566896565085,-0.239929289,-0.098125972,0.14180331699999998,-0.1634013505,-0.07395209956995304,0.7214045346849356,0.2955208480577627,0.17190719823723574,1.8866984383962189,0.11768334419323864,0.13981371241457544,1.684616246,3.3102266788000003,5.316751497778947,-10.5523386,9.821665764,20.374004364,4.781038284,-1.4667277670718646,1.9791359271809421,392.25447154173963,6.263022206105768,1.4710135152077255,21.372463148444048,22.56677779710328,33.102266788,-6.9097897828,5.059600164627728,-17.90205002,0.155667394,18.057717414000003,-6.339734554,-0.5648310753062928,-0.06335304760080485,733.447486683882,8.564154871812407,1.6959107056254021,15.841665346331672,23.998351526145594,69.097897828,-6.566789984299999,6.176607664331841,-14.25574493,5.713991165,19.969736095000002,-7.753352640999999,0.4992978496092382,-0.8163411145083153,812.7321293698564,9.015165718775537,2.025480316483382,12.736321538761587,39.47962536850771,65.667899843,1.0
-0.3468252451,0.018423860173148423,-0.380482942,-0.323135287,0.057347655,-0.3428117485,-0.3178127086141151,-1.0873825530314951,1.206271892623548,0.3473142514529958,2.163956242170852,0.05463219233687825,0.10929440344701606,3.468252451,-0.9861011504999999,0.13247364962292968,-1.198129058,-0.777895093,0.4202339649999999,-1.01557076,0.2070499281249686,-1.0570608885418311,9.899447468618423,0.9949596709725688,2.1639594854442645,0.4289976258273228,0.7605958785873612,9.861011505,0.0008641671999999989,0.039068211636004026,-0.069168113,0.054190468,0.123358581,-0.00016590099999999998,-0.1536250630577199,-1.0984634295186047,0.015270719453851566,0.039077767917131044,2.0253275491857448,0.08862906000879942,0.10097660122754541,0.2366826684821567,-1.1349780188,4.528385701618463,-6.72550869,7.623240948,14.348749638000001,-1.134673104,0.5758198821573776,-0.7578036678311859,217.9445216578171,4.668452866398215,2.025439788733884,13.166567637053303,13.37456234401685,23.703887348407065,7.4108633181000005,6.3004523715251395,0.137882248,17.96134949,17.823467242,4.093740463,0.6018197717273374,-1.254389985087038,946.165952054169,9.72710620921849,2.1640813004097406,20.635061302744315,37.926267647294715,74.108633181,-3.6532199144999993,4.291585335949539,-9.973184586,3.625144482,13.598329068,-3.8391786815,0.2826197560664837,-0.9370198204479436,317.63720439436497,5.635931195413629,2.302672792327938,15.247573336545818,23.530405231512248,36.532199145,-0.1925459088,0.01747190731543302,-0.222217336,-0.157308355,0.06490898099999998,-0.195633121,0.45654565535179564,-0.19254200689527634,0.37379194540856997,0.19333699734105989,2.163956314919979,0.07522141843492246,0.08868683070119025,1.9254590880000002,1.0186136781,0.11605629927122285,0.854093015,1.224618196,0.370525181,1.0023534600000001,0.3620654761289948,-1.0726385811227859,10.510428898129419,1.0252038284228857,2.1639590582251143,0.28983655103990863,0.7367974005052468,10.186136781000002,-0.17759728069999997,0.04364599962341117,-0.260212362,-0.098125972,0.16208638999999997,-0.1668444725,-0.3270701392846355,-0.17511670232656806,0.334457673951614,0.18288183998188942,2.0253279396820734,0.1579331864411352,0.1954095169937294,1.775972807,1.1783112467,6.059445465390638,-10.5523386,9.821665764,20.374004364,0.795143276,-0.39069895694234485,-0.6144013861986353,381.0529674214288,6.172948788232644,1.8868686009160431,18.453898145114376,19.693736201687194,21.64542591203607,-0.8206277319999998,7.227843649487715,-17.90205002,9.67259407,27.57464409,0.1375259865,-0.8767992835999694,0.8194618113092242,529.1515369596734,7.274280287146444,1.7482992410304805,18.51389705566877,31.678014797000138,34.414701946718914,5.8347613101,8.323042257543921,-5.449120522,17.9116745,23.360795022,5.1621615885,0.17726102932208823,-1.4241727620895932,1033.174719667017,10.164520252658345,2.1641168580311785,19.085559830604215,48.189005911554446,58.34761310099999,1.0
-0.2908927769,0.07383557770462774,-0.380482942,-0.196965635,0.183517307,-0.326750368,0.2972752440960386,-1.7268324643288873,0.900703001875693,0.3001171441080454,1.834374091978564,0.1734188547771297,0.4581261973578761,2.9089277690000004,-1.0651892780999999,0.07313487025970895,-1.198129058,-0.989799559,0.20832949899999986,-1.0485348105,-0.881934262917465,-0.5004086878101006,11.399769074271036,1.0676970110603023,1.6957451251009434,0.16253525315244144,0.448111389979599,10.651892780999999,-0.0431608444,0.060084206165640856,-0.127947837,0.054190468,0.182138305,-0.068228856,0.41699715141669325,-1.1079902727184632,0.054729703198762455,0.07397952635612265,1.60944021417516,0.11772617074453999,0.3919277264240066,0.431608444,-0.5952005803000002,4.153748747993499,-6.038992405,5.890532017,11.929524422,-0.7074975669999999,0.1385629886126794,-1.5084262495618042,176.0789239224702,4.196175924844789,2.0254219628164205,6.765780459839184,7.095072308755409,27.119816739630686,0.08840607709999988,2.5345981798045014,-3.578290462,3.835479736,7.413770198,0.137882248,0.02697432811067449,-1.490337710069948,64.320035675365,2.5361395008036327,2.0253878371833673,2.433620939729228,5.272120860417379,16.815884354014944,-0.3263708114,3.1218065742334464,-3.796772957,4.545823097,8.342596054000001,-1.8958849905,0.3602864012649927,-1.6250679326603086,98.52194193461061,3.1388205099146815,1.8867719813047819,7.664837915633637,11.032200957338759,17.123889261731325,-0.1256494645,0.07405948236808318,-0.20692578,0.00665923,0.21358501,-0.1405875795,0.6949564990535079,-0.8871263707945394,0.21272594857765184,0.14585127650372204,2.025328450462772,0.17831680147711407,0.4675753996183612,1.256494645,1.0727320789,0.08263592212047981,0.94968456,1.224618196,0.274933636,1.0625433325,0.22875628874707277,-0.8654810099610892,11.575828087258177,1.0759102233577937,2.0253290492519582,0.2446954761064031,0.47147115685793217,10.727320789,-0.1577670471,0.051469321015795474,-0.260212362,-0.078446515,0.18176584699999998,-0.1652512625,-0.1442191266936536,-0.4094231028476649,0.27539532156480623,0.1659503906487738,1.8866988751134828,0.186593599354105,0.2379514589755896,1.577670471,-3.0882557456,5.035888980864395,-13.73991299,3.496896505,17.236809495,-0.632551372,-0.7469355731712874,-0.4707391719482805,348.97501377822846,5.907410716872736,1.9731370857803507,17.933803764919855,24.77112896231178,30.882557456,5.767241224999999,4.918034313431859,0.061402775,13.55862904,13.497226265,6.0779190065,0.19991372064716062,-1.428311953419724,574.4813285543268,7.5794546542236585,2.0254335445925986,15.827124710041437,27.889003746108887,57.672412249999994,10.1594083794,5.298972145359387,2.294840336,17.9116745,15.616834164,10.516869545999999,0.05796619782938817,-1.403119296774943,1312.9268441671761,11.458301986626012,2.1640668805459815,5.380946498610829,36.61151222006326,101.594083794,1.0
-0.22471010830000004,0.04130941454605594,-0.326750368,-0.196965635,0.129784733,-0.197925642,-1.448669169124591,0.9222300042154514,0.5220110050233563,0.22847560154715785,1.2275312476993514,0.13312575998081425,0.2281654776858005,2.247101083,-1.0063516676000002,0.08037499718905862,-1.198129058,-0.88551569,0.31261336799999995,-0.989799559,-0.9603933397608279,0.9067257307602015,10.19203819054442,1.009556248583724,1.4978700113869228,0.3052741880905387,0.310181695277894,10.063516676,-0.0768982057,0.02205265449883052,-0.127947837,-0.058341648,0.06960618900000001,-0.068228856,-1.5002755947325082,0.5870542313687044,0.06399653610324303,0.0799978350352327,1.3592377070582804,0.09545636817314632,0.10514707072728127,0.7689820570000001,2.5738630534999998,2.5797420540369815,-4.444287777,5.890532017,10.334819794000001,2.56444335,-1.7351071176836594,2.7975999108408,132.7984008353929,3.6441514902017027,1.4979689201363175,9.140100706130081,11.079654539979638,25.738630535,-1.1108979925,2.506130537308255,-3.578290462,3.865072489,7.443362951,-2.549553156,1.1327696844972506,-0.3584371130091628,75.14784619769492,2.741310748486842,1.497941873806713,10.233636975313404,11.108979925,13.035457776315726,0.5320518494,4.525480397228134,-3.060551405,8.048157692,11.108709097,-2.935496807,0.7050235829929408,-1.2320461192427636,207.63051996146066,4.556649207054024,1.0890285037660943,10.452192975490867,19.086028089843058,21.12156129857476,-0.12337810279999999,0.07357849536220583,-0.217390493,0.00665923,0.22404972299999998,-0.132891644,0.5936932824522343,-0.8424343208204923,0.20635951230293514,0.14365218839368063,2.0253285532775562,0.163047210559551,0.4766078300947749,1.2337810280000001,0.9312191543999999,0.11365092803258207,0.781743407,1.11720705,0.335463643,0.912918925,0.278119000864775,-1.3907389370042016,8.80085646964118,0.9381288008392654,2.1639587547089247,0.22948134439577306,0.7242994548142586,9.312191544000001,-0.1017772683,0.035450263812338324,-0.178915754,-0.067821331,0.11109442300000001,-0.08947516999999999,-1.1304553109630338,-0.046152839667525924,0.11615333546974571,0.10777445683915356,2.0253274240962544,0.1637891740184243,0.17335647498177875,1.017772683,-4.8120553498,5.113750962502528,-13.73991299,3.496896505,17.236809495,-5.1594648365,-0.0508265057792179,-1.0305867005322735,493.0632559603434,7.021846309627856,2.164077482219013,16.604824356954733,31.663671069679513,48.12055349800001,3.938528968,5.261716089324508,-1.369626522,13.55862904,14.928255562,1.8925990945,0.7487675834279608,-0.9103694135855309,431.9766663643153,6.572493182684295,1.834501876154139,12.07798699607769,31.638649705702253,39.38528968,2.1830747964000006,6.218312952372898,-5.506892681,12.72872734,18.235620021000003,1.5037047270000001,0.4034057361208477,-1.1198382229954194,434.3323154032544,6.590389331467865,2.16408397648044,19.155519861640183,21.830747964,35.72539034741624,1.0
-0.2413242101,0.0288099707128623,-0.266188204,-0.197925642,0.06826256199999997,-0.257711649,0.7876293448426125,-1.27215920114157,0.5906738879286493,0.24303783407705254,1.504789259703803,0.08089179961110808,0.1804857990429983,2.413242101,-0.9580161034,0.03692777606370377,-1.017756343,-0.88551569,0.1322406530000001,-0.947993159,0.23807559073874546,-0.5839528261989289,9.191585150187304,0.9587275499424904,1.695744220879107,0.10968860210529431,0.1972802945290977,9.580161034,-0.0432500479,0.021779490326075894,-0.068228856,-0.01968932,0.04853953600000001,-0.0425052175,-0.0372186338147505,-1.9065723679095627,0.02344912842215928,0.04842430012107483,1.4184843735537571,0.04519727173926735,0.1442723682599068,0.43250047900000005,6.9142744306,4.018110323064531,2.56444335,11.17927933,8.61483598,7.359677314,-0.025298177239196525,-1.9586866830505347,639.524014699667,7.997024538537236,1.2799537088422357,9.57274330273262,26.1121260761967,69.142744306,2.3734600544999997,3.5130668775265494,-2.549553156,8.431997299,10.981550455,3.460865021,-0.2561929583344258,-0.9286689035521087,179.74951516281283,4.2396876673030155,1.5049034526799185,14.517010877270492,16.62789586993369,23.734600545000003,3.63576653,4.436475055783547,-2.935496807,8.048157692,10.983654499,5.976145744,-0.6921102667109156,-1.3098376796842057,329.01109181257874,5.735948847510573,1.557227554844977,15.199260492006097,25.8869389057256,36.3576653,-0.1814297393,0.026920871441340234,-0.217390493,-0.141916484,0.07547400899999998,-0.1760106085,-0.015453523025883861,-1.4897929552226448,0.33641483621627133,0.18341614874821446,2.025327055778137,0.06170798671998196,0.1634575088074153,1.814297393,0.9279600559000001,0.11309603556925295,0.781743407,1.138199091,0.35645568399999994,0.9063891470000001,0.4350711075683378,-1.0506595418361577,8.739005786074129,0.9348264965261804,2.3025880409177466,0.28658226605020504,0.6905719600023864,9.279600558999999,-0.10000713089999999,0.040217990495210264,-0.176799923,-0.060821101,0.115978822,-0.084571101,-0.8629313695600823,-0.7388146981169976,0.11618912990322558,0.10779106173668834,2.0253274740077822,0.1522131401615429,0.20497852936451524,1.000071309,0.10157594689999976,5.652332810057132,-9.903776169,6.871115685,16.774891854,1.8453124765000002,-0.5495839542682036,-1.0685770578447407,319.5918386863698,5.653245427949947,2.1640744681711803,12.432418382110537,14.337724901600597,34.76255020819955,-4.1530384754,5.193858504473702,-11.97781277,3.723795414,15.701608184,-1.650004983,-0.2274444904216712,-1.4437951391672226,442.23894742646553,6.650104867041312,2.025449647405858,13.800730936331998,29.241436012692944,41.530384753999996,-3.7633604645999994,3.436906249516212,-8.119252205,3.710977554,11.830229759,-4.661808491,0.9330953807696769,-0.1157389496986001,259.75206554477927,5.096587736366159,2.1640417193248154,14.553814205415037,17.048637606400177,37.633604646,1.0
-0.23683656599999997,0.03853361825369011,-0.266188204,-0.151357174,0.11483102999999997,-0.2550463155,1.310587548609066,0.14463747071534128,0.5757639873039346,0.2399508256505767,1.3592383178224816,0.1596905312082569,0.18827681594630166,2.3683656600000003,-1.0077841162,0.06642645702359896,-1.154012561,-0.943950176,0.21006238500000007,-1.0007309915,-0.8996085999942758,-0.16947723178470042,10.200412990577233,1.0099709397095162,1.6094405460867334,0.12162497867775092,0.4271072793515943,10.077841162,0.005527165899999999,0.04006293655768474,-0.026668787,0.082983933,0.10965272,-0.01968932,0.9175903747789445,-0.9185103987966721,0.01635588448511195,0.040442409034467705,1.6094393371014557,0.05527165899999999,0.14087104828468916,0.24112520150617753,9.2364082225,4.030303918927839,1.048385382,13.5057869,12.457401518000001,10.83887434,-1.3371588230415155,0.11307530957827394,1015.545865315907,10.077429559743432,1.2799944060845005,16.231153460213516,20.360098623688106,92.364082225,8.579601002200002,5.953713599124845,3.460865021,19.99643326,16.535568239,6.585064888,1.1984156730884172,-0.16049504611732646,1090.5625897735538,10.443000477705409,1.748221260667042,23.318345204032106,24.523200965704316,85.79601002199999,-0.7489430900999995,7.8045931203064,-13.22837257,6.63479805,19.863170619999998,3.924412489,-0.43988889454636776,-1.6497221456798237,614.7258952574252,7.8404457478986815,1.4710087526762317,14.473573024915874,18.024434938885328,48.229513366107334,-0.14811307629999998,0.043391960313713424,-0.216026008,-0.067967057,0.148058951,-0.1517930255,0.1423897888321007,-0.6351283183077436,0.238203455909165,0.15433841255797762,1.8343737026964766,0.17597889496694635,0.2343935579804409,1.481130763,1.047714585,0.059993464369411435,0.936625004,1.138199091,0.2015740869999999,1.059515476,-0.1767738129367708,-0.7981484704774067,11.013050673887662,1.0494308302069109,2.025328332076352,0.10769887525075642,0.39738052857623996,10.47714585,-0.172225684,0.07539952950377873,-0.275924683,-0.060821101,0.21510358200000002,-0.1708185595,0.024089554085944234,-1.2543218942220915,0.3534677527865906,0.1880073809153754,1.8866992349792433,0.3311813888646728,0.3901208536083555,1.72225684,4.6215621468000005,4.098683110131674,-6.293414593,10.09684753,16.390262123,5.371270418,-1.6057088754654392,2.377483686525914,381.5803991401328,6.177219432237557,2.0254546385509857,14.983983340969996,16.343990305667703,46.215621468,-10.422187113899998,3.65603270614717,-16.97372055,-1.930383444,15.043337106,-10.224430085,0.643435758446656,0.9877197158541904,1219.88559385561,11.044843112763576,2.025444859525523,12.890320647828158,15.455838694993341,104.221871139,4.8858616345,10.351449025716358,-8.119252205,22.84212112,30.961373325000004,6.234681129499999,0.16003274415098423,-1.3147596930863337,1310.2414084348316,11.446577691322554,2.1641645077531173,24.140052659984093,48.858616345,63.447414154841525,1.0
-0.21583136760000002,0.03564932950728669,-0.261265934,-0.151357174,0.10990875999999997,-0.22006154049999999,0.4560109932684869,-1.1159490061149147,0.47854053934405427,0.21875569463308933,2.025327411961261,0.08112077057478445,0.23347351271649747,2.158313676,-0.9489733160000002,0.1220279738035704,-1.154012561,-0.791844666,0.362167895,-0.9642472865,-0.056488089678298034,-1.2577675295627706,9.154411808706408,0.9567869046295736,1.9730050966065353,0.16525240432272617,0.8289678215175568,9.48973316,0.017311423099999997,0.04027944328864196,-0.051566791,0.082983933,0.134550724,0.011341577,-0.01625412785593913,-1.0523213175853838,0.019221189213901375,0.04384197670486742,2.0253276626998313,0.06684850046923432,0.173114231,0.259400272127129,5.9437643474,4.628888006552885,0.893347919,13.5057869,12.612438981,5.6729454995,0.23469861937182393,-1.5516566255087816,567.5493879463249,7.5335873788410055,1.8344831060820443,12.474186876579008,26.307867171307688,59.437643474000005,13.565920209700002,6.218715480256559,5.494691372,23.23481369,17.740122317999997,14.35136032,0.05676710016503369,-1.5218755141778983,2227.066133603295,14.923357978696668,1.8868479856976235,25.974946455403245,26.90831721405858,135.659202097,-9.0213980192,5.710869505292036,-16.7086544,3.924412489,20.633066889,-9.364432812,0.8766969511427244,0.17413732633440215,1139.996527273002,10.677061989484757,2.025485030422152,11.288910728585078,35.0321609749718,90.21398019200001,-0.0919932749,0.034185118802564196,-0.156159654,-0.049527589,0.10663206500000001,-0.081269622,-0.562900728261609,-0.8895536582215877,0.09631384974372398,0.09813961979940822,2.163956708789984,0.11129032142730026,0.176587417976211,0.919932749,0.9744174300999999,0.10701372907683522,0.801898241,1.129572868,0.32767462699999994,0.9974533620000001,-0.2153199240471635,-1.3530191130012084,9.609412662936187,0.980276117373885,2.3025878166888996,0.26862575901651675,0.6826443651587664,9.744174301000001,-0.1732118332,0.07450004343027918,-0.275924683,-0.086981475,0.188943208,-0.16247563850000002,-0.17579640837548538,-1.6530781678973696,0.3555259563161811,0.18855395946947948,1.8343741511305058,0.09306175422469243,0.505539099446634,1.732118332,-1.5258923301,7.822575168963593,-15.74418259,10.09684753,25.84103012,-3.7380596400000003,-0.10714388614086215,-1.0704864677859287,635.2102967714377,7.970008135324817,1.83458762070058,14.465906113674839,15.258923301000001,52.20899544964605,-13.7352423438,5.57743300539331,-21.74596596,-2.016679525,19.729286435,-13.47563839,0.468799369225783,-0.28114811173190546,2197.646411725672,14.824460906642345,2.0254786044922284,16.063019073334704,30.906410161044967,137.352423438,12.805085510200001,7.076471179434786,0.100479081,23.73793411,23.637455029,11.79848337,-0.057226990721163926,-0.7829315481178196,2140.466592769051,14.630333532661009,2.025506226349137,14.653067608602798,46.79759065278455,128.05085510199999,1.0
-0.2281346023,0.02503109247481277,-0.258293003,-0.174035385,0.08425761800000003,-0.229065992,0.6784560821934771,-0.3648522449538656,0.5267195235706179,0.2295037088089467,1.834372987041159,0.03444747542577419,0.1640773970739393,2.2813460230000002,-0.9124185681,0.10234035325887862,-1.102717757,-0.791844666,0.31087309099999993,-0.909560412,-0.5797287422258134,-0.696224799337104,8.429811913188063,0.9181400717313271,1.8343754578705123,0.37122402426626067,0.6003410344669122,9.124185681,0.0205583672,0.03213400300752151,-0.051566791,0.06056305,0.11212984100000001,0.023491948,-0.770691814282967,0.14761958859431656,0.014552406112174373,0.038147616062048195,1.8866981094504018,0.13027100015495816,0.16927287859393902,0.205583672,2.5239695748000006,3.0309626859516094,-0.458909273,8.222395897,8.68130517,1.5899347665,1.0946613472657347,-0.2997544410907089,155.57157218147088,3.944256231299773,1.748152069816411,13.291980395743918,13.529517555952621,25.239695748,5.6367380791,10.154018412076583,-5.459193707,23.23481369,28.694007397,2.504216045,0.3960137664703895,-1.4033263116112136,1348.769060851662,11.613651711893473,1.8869323760353611,19.720735753866293,56.367380790999995,62.815798864146835,-6.314937341,5.6661997775198865,-16.7086544,-1.421866298,15.286788102000001,-3.210502386,-0.7934499607500457,-1.1081613507978754,719.8425353952257,8.484353454419646,1.609583690367391,15.145344224102622,34.42404719910368,63.14937341000001,-0.0558624457,0.01970407524878056,-0.083001092,-0.02136614,0.061634952,-0.053743575,0.19280660813506068,-1.123567602339673,0.035088634209950544,0.05923566004523841,2.1639562834828636,0.033822794697065325,0.1188528670776323,0.558624457,0.9312473595,0.07471309217137201,0.801898241,1.056012869,0.25411462799999995,0.939063996,-0.08297311512866894,-0.851287631321568,8.728036907175301,0.9342396323842883,2.1639580423106914,0.21662914063415276,0.4717608908813901,9.312473595,-0.13391429849999997,0.03964107301340643,-0.214337632,-0.086981475,0.127356157,-0.1253353955,-0.5510741184935821,-0.7278749435353218,0.1950445401240132,0.1396583474497723,2.025327589797573,0.137155639961067,0.20225786175892502,1.339142985,-6.839866030200001,4.213158035791978,-15.74418259,-1.205144167,14.539038423,-6.834303379,-0.49312243279612483,-0.24535318937411654,645.344679456424,8.033334796063365,2.0254411798918306,7.119120334463126,26.581194961893832,68.398660302,-5.060385752800001,11.411296274908747,-21.74596596,8.312265396,30.058231356,-0.28573453399999993,-0.3408647816946231,-1.6069030557556077,1558.2518664088745,12.482995900058906,2.0255507871602063,27.92931155978785,50.603857528000006,72.94248894525755,7.373619438,7.963727989335556,-1.125847816,23.73793411,24.863781926,5.9886209965,0.7313818191195892,-0.5918152589738455,1177.9122710457798,10.853166685561316,1.8345800885215955,13.453174283051784,53.19326855369301,73.73619438,1.0
-0.22177512050000003,0.022640981281716106,-0.258293003,-0.192107081,0.06618592200000001,-0.2198626775,-0.2601398670604488,-1.2210617032403048,0.49696818106188545,0.22292783160966811,2.0253269582341664,0.10089890243022893,0.10098294570397942,2.217751205,-1.0317728577000003,0.08468414582369545,-1.139626145,-0.902658403,0.23696774200000004,-1.069802403,0.4716620427384442,-1.353647371103128,10.717266344403132,1.0352423071147707,1.8343746705623127,0.2376461438373299,0.49291008982900986,10.317728577,0.012753036200000002,0.04195432362623689,-0.06439963,0.06056305,0.12496267999999999,0.023491948,-0.9187269023373614,-0.3607545324162782,0.019228052032535293,0.04384980277325691,1.8866982522664593,0.127530362,0.19970964267332678,0.20711777471153467,1.6450117996,1.6974664774043928,-0.458909273,4.08331728,4.542226553,1.3761745695,0.32512879051923266,-1.4848252337650976,55.87456262734909,2.3637800791814176,2.02536530686208,5.254617197553062,8.836736625780082,16.450117996000003,-3.8267443956,1.4880339339290467,-5.54911375,-0.486259282,5.062854468,-4.0824495555,0.8475767163562684,-0.024652290513242026,168.58217657780366,4.105875991524874,1.7481186684152943,2.4048869532314767,9.247789934545224,38.267443956,-5.6365600457,4.393644396908109,-11.43801212,-1.421866298,10.016145822,-2.8852727415,-0.39379772318203693,-1.7746725086903743,510.74920235263613,7.146671969194026,1.5048940193411235,7.599086181877136,28.450813209822613,56.365600457,-0.021106113699999998,0.07299217623313296,-0.091717459,0.13317734,0.224894799,-0.042637747,1.1984771162968288,-0.005959756670244953,0.05773325826766068,0.07598240471823768,2.0253285615673597,0.211061137,0.31958916752867256,0.34266123250911484,1.0206760883000001,0.0572761902087366,0.938964546,1.096852779,0.157888233,1.0201467874999999,-0.1805150173495563,-1.3783357196997217,10.45060239192217,1.0222818785404626,1.8866986149547036,0.24110779452906633,0.24961756486709918,10.206760883,-0.12441832940000001,0.040224011391009715,-0.171604872,-0.051706456,0.119898416,-0.12906076,0.4101948673095796,-1.1668396411635156,0.17097891783070987,0.13075890708885185,2.1639568319277114,0.11803272163320823,0.2196396797838626,1.244183294,-2.0415423196999996,6.363196966359853,-10.63101768,12.11900997,22.75002765,-2.267647624,0.7626352936288701,0.09926186953664784,446.5817067581729,6.682676909429132,2.3027259591940528,20.415423197,26.040990049892763,30.386579237644114,7.697612594900001,5.52677201512375,1.445210457,21.51384544,20.068634983000003,6.139782429,1.3398714714824231,1.1997603182397434,897.9844856831814,9.476204333398375,2.3027106149165757,22.784861381715423,25.34331384780608,76.976125949,9.1306899369,7.04859250041383,-1.125847816,18.37413406,19.499981876,10.002103328,-0.23480174415286498,-1.3806618093500538,1330.5215496069702,11.534823577354663,2.0254769702153674,6.648817212719483,48.5932248338875,91.306899369,1.0
-0.16474797489999998,0.04245672163140196,-0.222011492,-0.118048064,0.10396342800000001,-0.16222673650000002,-0.12821188242528134,-1.7653151786627945,0.28944468445337385,0.1701307392722943,1.748068685156965,0.06506254083236837,0.28708849885078436,1.647479749,-1.0229530451,0.10720727011910731,-1.139626145,-0.815845191,0.32378095400000007,-1.0599803325,1.1470657379524036,-0.16560839593034737,10.579263312457538,1.02855545851731,1.8867003868952357,0.44477327804010425,0.4677129517592452,10.229530451,-0.0214323358,0.038637009852535764,-0.083588801,0.036893614,0.12048241500000001,-0.0206031965,-0.1461677778147538,-1.3192817439556705,0.019521635481889073,0.044183294899643996,1.8866982025078913,0.08886726308994679,0.21432335800000002,0.24131707529662977,4.3765705378,2.3354055548291472,0.265060931,7.973513603,7.708452672,4.35158968,-0.387744276683307,-0.7039431350769121,246.08488777865819,4.960694384646752,2.025390106017738,8.417578886192608,13.424473452877175,43.765705378,-6.681671333300001,3.266031119370373,-10.91806984,-2.72856617,8.189503669999999,-5.196176767,-0.23333336641488864,-1.6789665929988298,553.1169107893869,7.437183006954898,2.0253937953345633,10.156315434580732,19.114912940360487,66.816713333,-9.6459824791,4.255638270312505,-14.07884121,-2.922785521,11.156055689,-11.202474115000001,0.6028089549014882,-1.2238358696047313,1111.5543507485258,10.543027794464576,1.695850191972729,15.269534278725816,24.437564146794177,96.459824791,0.006339398700000004,0.08788937497660765,-0.091717459,0.13317734,0.224894799,-0.032784433,0.3124204896817815,-1.6387975885508432,0.07764730209656309,0.08811770656148689,2.0253285615673593,0.07601332051337305,0.1413547883674679,0.5976355120936889,1.0155315398,0.06416726531434151,0.895307839,1.096852779,0.20154494,1.0154161455000001,-0.4475595070008533,-0.9037168115590424,10.3542174626648,1.0175567533393308,2.0253283317885526,0.20477708954370874,0.3444361354298153,10.155315397999999,-0.07639749430000001,0.038646354923778735,-0.169917345,-0.048307534,0.121609811,-0.054143146,-1.443324214784447,0.7823825521141408,0.0733011788421321,0.08561610762124852,1.4978677244128145,0.14829305984222904,0.17092234495875436,0.763974943,1.5778039763,6.668905150736241,-8.977308273,12.11900997,21.096318243,0.3111006395,0.17508121348849526,-1.12995823639638,469.6376129714445,6.8530111117044346,2.3027165158014715,16.228371610798003,27.738200201716293,32.91612126477944,11.6935177564,7.795791273781761,0.615637541,23.80287743,23.187239888999997,10.966369149999998,0.2831869062948745,-1.25040545153588,1975.1271910361397,14.053921840668318,2.0255030654487762,25.25030976090185,45.88311065172237,116.93517756399999,10.4375685903,6.014957507503871,-0.385968238,18.37413406,18.760102298,11.071778775,-0.40281870956619126,-0.9853962073313323,1451.2255189429432,12.04668219445895,2.3027030631158962,24.96230466766812,30.166876378964197,104.375685903,1.0
-0.13358496790000002,0.015821133177786807,-0.164866745,-0.118048064,0.046818681000000015,-0.12597197300000001,-0.9047995141324056,-0.6774332169795398,0.18095251903873297,0.13451859315304074,1.8866973643904266,0.046852210196845,0.09384165402146347,1.3358496789999998,-0.9480710205999999,0.10434638743776065,-1.088585734,-0.815845191,0.27274054300000006,-0.9161685405,-0.16434135719147525,-1.6498533947830216,9.097268286728369,0.9537960099899961,1.886699849455322,0.20989818573569127,0.665688850683143,9.480710206000001,-0.010492649700000002,0.03087538985743551,-0.083588801,0.02294787,0.106536671,-0.0053018775,-1.1230636015240376,0.49738835157758876,0.010633853965755419,0.03260959056129871,1.6957439091470956,0.10492649700000001,0.10558948035489629,0.1336604614476319,4.3675313056,2.2786137827782165,0.745227635,7.973513603,7.228285968,4.7552130224999996,-0.13917943031941574,-1.1468597381637078,242.67410476462894,4.926196349767525,2.1640101999454937,5.832130672769143,13.343944842059924,43.67531305599999,-2.6347330445999995,7.611599352867302,-10.91806984,12.57228661,23.49035645,-2.539161861,0.4714391033716407,-0.8306286100998856,648.7826292487711,8.054704397113348,1.7482673420815564,18.605545303265934,26.347330446,43.656487426635785,-5.7447168931000006,5.569651302975144,-14.07884121,-0.108853087,13.969988123,-3.241543531,-0.7076756605246536,-1.288514616281862,640.2278781860123,8.001424111906656,1.695875146982746,14.419302856185235,35.61800005516292,57.44716893100001,-0.026583018199999996,0.06914783793146038,-0.082884021,0.123203591,0.206087612,-0.06145621849999999,1.1945883332600347,-0.0494817467892652,0.05488080347217044,0.07408157900056561,1.4978687511885067,0.22359907043763708,0.26583018199999997,0.4149086783158373,0.9598662970999999,0.04999007016850353,0.895307839,1.051677585,0.15636974599999998,0.936219573,0.6100241003567878,-1.0385716015578486,9.238423154239175,0.9611671631011525,2.163957166518576,0.12688459215915263,0.3202519861167409,9.598662971,-0.0412074724,0.021863922975835295,-0.069270238,0.002486063,0.071756301,-0.049830789,0.9752579302310809,-0.34175235041570096,0.0217608690949002,0.04664854670287189,1.6434186705283882,0.09021200666600294,0.09979463981101284,0.412074724,-5.8680491681,8.897859915877953,-18.60142517,10.93530273,29.5367279,-9.6786904315,0.6617568449465768,-0.7078290192088854,1136.059121218267,10.658607419444,1.9732243571808576,31.493119416637814,50.96846265852206,58.680491681,4.506187141699999,10.611177425121351,-6.870589733,23.80287743,30.673467162999998,-0.443078339,0.766227879678379,-0.9117076956828098,1329.0280890342742,11.528348056136553,2.1641627233346004,32.23474704370273,45.061871417,63.33550348439544,1.1169266911000002,5.974421918829488,-6.048127651,11.35568714,17.403814791000002,-0.778276339,0.5861637841074113,-1.005792738846722,369.4124249748181,6.077930774324582,1.8868453358693091,11.169266911000001,16.680305896206242,38.03109655280073,1.0
-0.12136875989999998,0.02909257469044129,-0.164866745,-0.071736597,0.09313014800000001,-0.123089537,0.20777812027438064,-1.0097016708519868,0.15576753781782754,0.12480686592404583,1.7480684762377936,0.062471532451362034,0.18919034174838506,1.213687599,-0.9391571519999999,0.10295002035832332,-1.088585734,-0.817342937,0.271242797,-0.891855061,-0.5805106184859233,-1.3359917994932968,8.926148628445302,0.9447829712926299,1.8343750373138024,0.305642316273639,0.5986044125126754,9.39157152,0.0318706712,0.0335553484547635,-0.006909222,0.099450506,0.10635972799999999,0.02294787,0.8749892156106203,-0.4551556121296021,0.02141701092659109,0.04627851653477139,1.6094392965872601,0.122608261202101,0.170509440766058,0.318706712,4.383835893900001,3.977001542991569,0.745227635,14.25707245,13.511844815,2.8300246,1.379639204484381,1.029472557380556,350.34558417603336,5.91899978185532,1.7481872445229734,15.535886944558246,17.824134462563894,43.838358939,4.2698488219,6.123536330107267,-6.137104988,12.57228661,18.709391598,3.1008824109999997,0.1403472307436408,-1.062324399345502,557.2930614802441,7.46520637008947,1.8345320335038449,13.400650666054492,40.010782254817414,42.698488219,-6.2955459697,6.495400400122675,-17.29817581,-0.108853087,17.189322723,-3.549084663,-0.7923863522177937,-1.1931004885770293,818.2412541451972,9.045668876015732,1.834519975928934,20.03045579386112,39.03719139349546,62.955459697,0.010627980100000003,0.08385547884616272,-0.082884021,0.136171252,0.219055273,0.007450868,0.2862473556444656,-1.489693871428757,0.0714469529352524,0.08452629941932416,1.6094406524069642,0.1272001279749327,0.19875694974495622,0.5237006437548739,0.9614495515,0.0973711526476882,0.841131091,1.172975302,0.33184421099999994,0.926274687,0.9662351608442878,-0.17937401255499097,9.338663814474906,0.9663676223091762,2.163958723265331,0.3693526424614262,0.47250516392362973,9.614495515,-0.058884842300000004,0.036258741580813686,-0.107705086,0.002486063,0.110191149,-0.061357447499999995,0.3848994639366622,-1.1097553262511948,0.047821209937200966,0.06915288131177251,2.1639567419099572,0.12869032256953156,0.18780838692715576,0.588848423,-4.4980209166,9.045985700904803,-18.60142517,10.73444843,29.3358736,-6.5522853119999995,0.1650443227413332,-1.2399884559166454,1020.6204946714525,10.10257637769422,1.8346143666084098,17.527449264326894,44.980209165999995,58.448012603912666,0.8537539842000003,7.681636873938182,-6.870589733,14.63928509,21.509874823,-2.8841166495,0.815185755178701,-1.082993853100411,597.3644092858415,7.728935303687316,1.8868774211349466,11.78266783588353,22.442966741815578,45.713553868903595,4.890690063899999,9.641840825160237,-6.048127651,19.9759407,26.024068350999997,1.2845528124999999,0.3858341997734665,-1.4721888415416948,1168.8394379885685,10.81128779557999,2.0255228987014724,15.492992610488022,48.906900639,65.53867950799699,1.0
-0.031207198300000006,0.10238516456566468,-0.123089537,0.217380166,0.340469703,-0.076173779,1.3905722998833472,0.8125566099122006,0.1145661114887376,0.1070355602072216,2.0253296798036655,0.31207198299999994,0.3713983460455485,0.49302894175836837,-0.9403139888999998,0.09869345504486397,-1.088585734,-0.817342937,0.271242797,-0.9162420035000001,-0.3730415800590185,-1.4006485466978496,8.939307957897219,0.9454791355655194,2.025329013480665,0.19299519985420432,0.5998917581180762,9.403139889,0.0512846768,0.05821236380917781,-0.099260911,0.114560634,0.213821545,0.0651704575,-1.5114939921432604,1.7036877775471533,0.06018797374732532,0.07758090857119766,1.8866992212059437,0.15663678051328309,0.281568754427355,0.512846768,-2.3845590478,11.25460199470724,-23.34837914,14.25707245,37.60545159,0.42492598299999995,-0.5407564797259798,-0.75333361103801,1323.5218791171305,11.504442094761183,2.1642053031930533,19.535634381502067,23.845590478,72.92777217433296,4.6586993077,20.89420160941104,-9.776535988,62.02652359,71.80305957799999,-3.2445576935,1.9397011761974448,2.780048980576135,4582.711401342794,21.40726839496995,1.6100448573243071,58.263451493542966,60.92967698602722,96.71636106387383,-10.718017435199998,7.178123590597473,-17.34525681,5.360028744,22.705285554,-13.84525871,1.0914524657892604,-0.09397776970591432,1664.0135602314317,12.89966495778643,1.8868866615852224,28.17133858110819,32.96226719780705,107.180174352,0.16589167100000002,0.11882061428735946,0.027736362,0.469481677,0.44174531499999997,0.1480154695,1.36259459452131,1.6305351946159945,0.4163838488679769,0.20405485754276395,1.8867016101086505,0.42414172559232893,0.46658536106502235,1.6589167099999997,0.9732267439000001,0.09953654936556855,0.841131091,1.172975302,0.33184421099999994,0.959263414,0.5606980887564956,-0.7100155281679159,9.570778197018003,0.9783035416995076,2.1639587232653303,0.2933410935482318,0.5312212507109306,9.732267439,-0.13792861650000002,0.08200119132021695,-0.35750711,-0.053444657,0.304062453,-0.104688901,-1.7551733567061687,2.305769035892232,0.25748498627538896,0.16046338718704306,2.025329330553332,0.2514062869719741,0.39004982991115933,1.3792861650000001,12.121512812899999,14.29737294729294,-9.293123245,33.0544014,42.34752464500001,7.755157946000001,0.2018369818962335,-1.3554626608526947,3513.459460672829,18.744224338907248,2.0256338883516563,36.322872937864105,82.21263668837624,121.215128129,5.1100572827,27.933537430699218,-72.75728607,25.14659882,97.90388489,13.400258065,-2.0467495573171255,3.1246648660802263,8063.951988247496,28.397098422633775,1.6102442176957272,86.27428240975588,88.34808085032884,120.3355667144337,12.8381642566,4.555161388865025,3.739690065,19.9759407,16.236250634999998,12.208428855000001,-0.24498447078515367,-0.46298927215299424,1855.6795675804856,13.622333014504107,2.1640709446430035,12.09929692002293,27.221855272835857,128.381642566,1.0
0.1301359038,0.12060394703352659,-0.080610961,0.252466887,0.33307784799999995,0.20712921,-0.6587549103825054,-1.2608169638526534,0.31480665497908544,0.17742791634325344,2.025329609092066,0.29004605940053024,0.7656621495322627,1.301359038,-0.9436053752,0.06980565109175463,-1.04446578,-0.854809761,0.18965601899999995,-0.9545547665,-0.05393879777913106,-1.3806396274232255,8.952639330306765,0.9461838790798945,1.695744905331808,0.07406623313800256,0.4853117216043539,9.436053752,-0.0281131456,0.09312634661890433,-0.129111603,0.114560634,0.24367223699999999,-0.0854023135,0.4231822458038008,-1.6473210055876604,0.09462865390111114,0.09727726039579401,1.8343747425419608,0.22425951149684367,0.281131456,0.5359616496400149,-9.9874599574,7.874490804652504,-23.34837914,-0.582675099,22.765704041,-8.774350644,-0.2395111206478898,-1.4049663532872994,1617.5696183322523,12.718371036938073,1.9731768054091123,24.57452312968642,40.05525621893453,99.874599574,31.849805831999998,33.85351510158704,-9.776535988,62.02652359,71.80305957799999,56.546697615,-0.3988761750318259,-1.828413645702312,21604.706162694834,46.48086290366696,1.0556829441958058,74.91291470645487,209.95596279075298,318.49805832000004,-1.1263417726999996,10.947615895266516,-17.34525681,10.33098888,27.67624569,5.360028744,-0.3943013577362646,-1.7239797299215127,1211.1893957922107,11.005405016591668,1.7483149765349164,16.223998715935807,25.540305863431367,69.39203654938093,0.34003634590000004,0.12698044815990567,0.159859687,0.480809748,0.320950061,0.3892155735,-0.31295571188153076,-1.6630668814613292,1.3174875074791494,0.36297210739658076,2.0253294928615566,0.21874291377030874,0.8408920712424569,3.400363459,0.9209697187,0.084429931705958,0.745741248,1.043542147,0.29780089899999995,0.944902122,-0.6672968333854654,-0.2859583610658265,8.553136361302299,0.9248316798911194,1.97300447572112,0.2867151609781774,0.4859411285336265,9.209697187,-0.3024104422,0.14387728162539148,-0.510616541,-0.101672716,0.408943825,-0.3078568275,-0.09694836772226036,-1.4556205840641006,1.1215274771951174,0.33489214341263923,2.1639593887103317,0.18497000162083962,0.9757868023492616,3.0241044219999997,3.3391701712000015,20.721958413159545,-18.17497826,33.0544014,51.229379660000006,-7.420073509,0.4070165523335537,-1.6530012972444428,4405.496179089454,20.98927387760104,1.887098093127216,37.67981857293501,41.665646788148244,132.98424096459175,-27.786462593,42.598814498282124,-72.75728607,25.14659882,97.90388489,-51.712474825,0.3434118602530119,-1.7994553811636125,25867.465000912394,50.860067834119526,1.610244217695727,86.80131629386395,269.6528358943035,277.86462593,15.5004402151,3.9863514336812234,9.008944511,21.19247818,12.183533669,16.05235672,-0.0809507179116204,-1.2733674816956007,2561.546446147017,16.004831914603216,2.164044092319236,8.924994120647579,24.67899159144261,155.00440215099997,1.0
0.15936818999999997,0.0700720584646133,0.049619041,0.252466887,0.20284784599999997,0.1737698615,-0.2379364943054721,-1.5029567860926205,0.30308313361344286,0.17409282972409945,2.0253283446511605,0.1153602831191892,0.45684493961228134,1.5936819,-0.8854295967999999,0.08462063275928898,-1.04446578,-0.784963012,0.25950276799999994,-0.866070628,-0.5687548052838391,-1.0361236779225365,7.91146222377993,0.8894640084781357,2.163958089895633,0.12771783213461935,0.5578304106911323,8.854295967999999,-0.10891563739999999,0.020363233461238518,-0.133801386,-0.074567683,0.059233703,-0.117490325,0.5179680201868674,-1.1618771035845596,0.12277277347245182,0.11080287607839961,1.695743322987351,0.046268076307563105,0.12902841399103138,1.0891563739999999,-11.5785551302,5.244761514595053,-17.00858688,-1.230938673,15.777648206999999,-14.337539674999999,0.830049735429164,-0.8351000525031513,1615.7046224805813,12.711037024887393,1.8345086999555096,16.487683417216953,29.921088092008457,115.785551302,47.872254753,13.555484002446335,20.62096596,62.02652359,41.40555763,53.477607725,-0.7602545085586548,-0.8055197924893367,24755.039216767098,49.754436200973174,2.0256276037675844,30.14576997561549,79.3132028599879,478.72254752999993,9.3981686587,2.028452596266591,5.360028744,11.64589691,6.285868165999999,9.7039608935,-0.507146903163528,-0.8621997929242369,924.4019407267164,9.614582366003821,1.8344302044472596,7.5519945434082265,10.825480499918063,93.981686587,0.3709039301,0.06960042605020618,0.289557904,0.480809748,0.191251844,0.34692648049999997,0.3476045348969036,-1.501422061689242,1.424139446699959,0.3773777214807412,2.0253282299922035,0.09256451398998922,0.46930345166593646,3.709039301,0.809972632,0.08505270940766559,0.709336281,0.949820161,0.24048387999999998,0.785236031,0.5838876066855999,-1.210023866334549,6.632896279665923,0.8144259499589832,2.163957921648107,0.1704687526051559,0.5622814647850953,8.099726319999998,-0.34662231190000004,0.09448982520868932,-0.510616541,-0.258092761,0.25252378,-0.305410355,-0.782142148460585,-1.1717035433758258,1.2907535417486955,0.35927058629237874,1.8866996349201013,0.25517783150062495,0.602413964026964,3.4662231189999995,-15.6764864913,4.721828403219926,-23.79792213,-5.547023773,18.250898357,-15.547499179999999,0.3892890021248183,0.19247632508453316,2680.4789218136584,16.37216821869864,2.1640840755820516,18.47936527913203,19.927323474969274,156.764864913,-45.96050911,15.832847085486087,-68.40711212,-21.6149025,46.792209619999994,-45.43686867,-0.0016679987567113355,-1.3646150520698737,23630.474444827785,48.61118641303438,2.1642606626847947,44.65822409546322,92.66204728814637,459.6050911,10.919789567400002,8.407132900292714,-1.770658851,21.19247818,22.963137031,11.816157103,-0.17386217345476285,-1.5802291782747884,1899.2168779948204,13.781207777240791,2.0255014901026858,16.49891522828434,54.03927971522456,109.197895674,1.0
0.10458901000000001,0.028943755768868606,0.049619041,0.150661469,0.10104242799999999,0.10574792699999999,-0.14699768753209405,-0.5353877855636595,0.11776602010788015,0.10852005349606134,1.6094392310160202,0.09398341985774479,0.1658351969904767,1.0458900999999998,-0.9201074183,0.11217299624343223,-1.137356639,-0.784963012,0.3523936270000001,-0.9304563105,-0.37552876149603237,-1.025016472709573,8.591804422969203,0.9269198683256931,1.6434219962544003,0.312885348232657,0.6421523204932461,9.201074183000001,-0.12956623439999998,0.03306639405170814,-0.213980347,-0.074567683,0.139412664,-0.125758298,-1.178747844738544,2.0270462586591007,0.17880795512178582,0.13371909180135266,1.6957443072028573,0.1083001810990029,0.18090984539920024,1.2956623440000001,-14.179229164,1.240412357169245,-16.10092163,-11.54903507,4.551886559999998,-14.41906357,0.5654370058570904,-0.034529409725184035,2025.891625010463,14.23338197692475,2.025365384184439,3.922289877520899,6.977422538881138,141.79229164,20.8668601985,18.17624687476273,-5.35550499,51.73740387,57.09290886,16.649333,0.31209055651687345,-1.2037288651052864,7658.018049960654,27.673124236270564,2.0257307782583323,44.60071193210438,103.45939114347337,208.668601985,8.7992429731,2.7005348117208645,2.439707756,11.64589691,9.206189154,8.546572208499999,-0.9575248383171697,0.46557928397238335,847.1956516896598,9.204323178211746,1.6435084133388067,10.420409617344417,12.156659592875169,87.992429731,0.35996431430000003,0.061732381512718364,0.289557904,0.461580545,0.17202264100000003,0.337901041,0.5794610559474077,-1.1798102955241632,1.33385194496701,0.3652193785886792,2.0253280389142687,0.18123745431369997,0.38000073797016926,3.599643143,0.8388480963000001,0.10627211046110796,0.709336281,1.029350758,0.3200144770000001,0.8008082215000001,0.4975893567615443,-1.1556662222958125,7.14959890127992,0.845553008467235,2.16395862034251,0.3249667442786601,0.6230275136919822,8.388480963000001,-0.30961499509999996,0.042509960195837575,-0.397482574,-0.258092761,0.13938981299999997,-0.30109062799999997,-0.5712657489975147,-0.6209419950575557,0.9766854190662473,0.3125196664317699,2.02532771160348,0.1507724627740378,0.21592588282019393,3.096149951,-10.9239698884,7.979711477392292,-23.79792213,4.873754025,28.671676155,-10.259334564,0.2090330940505474,-0.46701710490639403,1830.0891338509618,13.528078702650136,2.302759308134753,24.60044657773559,38.78369570240597,109.23969888399999,-15.975727605700001,19.511111928416693,-41.46043396,22.20966721,63.67010117,-20.169793130000002,0.564326409273234,-0.7378496050639982,6359.073612147293,25.21720367556104,2.302946556673613,63.220903878738824,103.31182557057816,159.757276057,1.1990469245000002,3.523773510195527,-2.576868773,7.952863216,10.529731989,0.04915149500000002,0.7060814270289614,-0.8612245169195165,138.54693278308613,3.7221893125294705,2.164032932996427,8.435789131168605,11.990469245,23.21289429523062,1.0
0.1505314581,0.04580619494582033,0.105723128,0.246802941,0.141079813,0.144993484,0.7652131330930908,-0.4642623537763484,0.24757927373126554,0.15734652005407224,1.470810422300971,0.13394159548669157,0.2511626230928447,1.505314581,-1.0819485603,0.07652422157739089,-1.182821035,-0.988549769,0.1942712659999999,-1.101740479,0.07094612636362196,-1.6319306639823778,11.764686436232683,1.0846513926710593,1.470811109380201,0.15010987427012742,0.5167159691600539,10.819485603,-0.1813479535,0.05377968071439521,-0.296512723,-0.110433616,0.18607910699999997,-0.18788707999999998,-0.5777985398837123,-0.3341372491371781,0.3577933429638045,0.18915426058215143,1.8866989218828567,0.207488371192583,0.22388166633818216,1.813479535,-13.4890495289,3.798813288171486,-16.68025589,-2.999457359,13.680798531,-14.41906357,1.9545841100365047,2.9373333077570924,1963.854395915056,14.01375893868257,1.8868156986392894,13.251314565202803,17.640486189800924,134.890495289,-1.8763884549000003,8.529968508371512,-16.43685722,12.67770004,29.114557259999998,-5.35550499,0.11741456691836666,-0.9599277206232313,762.8119638749172,8.73391071556675,1.6097024215941056,23.395554701620565,26.192782161062738,42.830615585115666,1.8834985732,5.942117870677784,-8.892478943,9.098713875,17.991192818000002,2.439707756,-0.35191927477015633,-1.1893475931524489,388.5633166427472,6.233484712764981,1.6959101325731953,14.88829177271977,18.834985732,34.994426343943644,0.4458657147,0.048860714436163355,0.350064576,0.51051122,0.16044664400000003,0.45990940950000003,-0.7784795508179095,-0.4979732221489166,2.0118360496015413,0.4485349540004147,1.834373839263108,0.13294074067703454,0.29697449957564853,4.458657147,0.9460445345,0.07685556089478217,0.812207878,1.104572058,0.29236418,0.9374575615,0.3964529801965256,-0.059968963327004854,9.009070384977731,0.9491612289267684,2.16395837882079,0.22265369960642054,0.4547859914746383,9.460445345,-0.31848959179999997,0.05339160092963798,-0.397482574,-0.219853625,0.17762894899999998,-0.32188645,0.1377992042606588,-0.7369155801513756,1.0428628313476034,0.3229338680515878,1.8343740276669185,0.1851915576806733,0.2734449379458522,3.1848959179999996,0.3511050579999999,6.916570785026271,-8.553757668,12.4773283,21.031085968,-0.71225673,0.34533895466908215,-1.1836358486248852,479.62226186032103,6.925476603529327,1.8868737081398441,20.56399045979502,24.189805910492375,33.43726121432193,11.8124592313,15.873257497763651,-18.72468376,29.23611259,47.96079635,19.852037430000003,-0.7414769855793226,-0.9511015647977374,3914.944966814345,19.786219868419398,2.1642676288928278,49.564737678933554,87.45483170643028,118.12459231300001,0.4163105289999999,2.6537701131114675,-2.576868773,6.076519966,8.653388739,-0.224402884,0.801301706941582,-0.37319841377342344,72.1581026979991,2.686226027310418,1.8867745769055506,4.163105290000001,6.646487586823335,16.7051700360576,1.0
0.1658072449,0.04522310228398509,0.083730042,0.246802941,0.163072899,0.168242052,-0.09467006106992387,-0.5514042792027065,0.2953717144151635,0.17186381655693658,2.025327949550211,0.09081474517000498,0.2998583305840676,1.658072449,-0.9669427512000001,0.17697588584693907,-1.182821035,-0.758974671,0.42384636399999986,-0.9567521809999999,-0.041696546885839514,-1.8850748617670081,9.662987482695339,0.9830049584155381,2.025330471171453,0.31842220244053593,1.1819258651707505,9.669427512,-0.1677887648,0.06009339726160566,-0.296512723,-0.094846115,0.20166660799999997,-0.15836135299999998,-0.6503026597714907,-0.3580233064047045,0.3176428598755088,0.1782253797514565,1.8866990903693086,0.14967971503030514,0.3141647706619864,1.677887648,-4.1093084206000015,9.652860135421694,-16.68025589,8.348641396,25.028897286000003,-0.981265366,-0.17461273333454316,-1.6085005515990354,1100.641244896274,10.49114505140537,1.6959699071770777,19.454002924152256,41.09308420600001,63.588975114440665,-16.8956767084,9.01876318037438,-27.86735916,-5.35550499,22.51185417,-17.83733177,0.12145846396527153,-1.6662540297745907,3668.0198073844685,19.152075102673518,1.8345618565354846,9.63660296776083,62.42629070169586,168.956767084,-2.0192236190000004,6.628512321573494,-12.11250401,9.785933495,21.898437505,-2.226507664,0.1768781598350817,-0.9893830089339253,480.1443962077908,6.9292452417834856,2.0254939875661027,17.936124195145528,20.192236190000003,42.737039183325514,0.33960881239999996,0.15247642293479802,0.118198305,0.51051122,0.39231291500000004,0.396873206,-0.32242295855952535,-1.616608690464758,1.385832050107298,0.3722676523829727,1.6957472394294908,0.3212916206616085,0.955180896004098,3.396088124,0.8511393606000001,0.12535554407606297,0.711155474,1.104572058,0.393416584,0.8324118254999999,0.5433212479470394,-0.8248153664629534,7.401522235931826,0.8603210003209166,1.8343763236818282,0.3726720104619847,0.7200682818464227,8.511393606,-0.26809526089999997,0.05096477964854037,-0.39618808,-0.219853625,0.176334455,-0.2547975185,-1.4168477246552713,1.2240227165970499,0.7447247768166335,0.27289645963563425,1.973003279254129,0.2097833387184052,0.21077014492195106,2.680952609,3.9997969148,4.047688757433513,-0.730237246,12.4773283,13.207565546,3.1719356774999996,0.7916572530352481,-0.34267898824319154,323.82159636697247,5.690532456343364,2.1640509390249694,13.281949358591167,21.89787235119728,39.997969147999996,20.987818814,5.746038057669955,10.28431606,29.23611259,18.951796530000003,22.31282139,-0.39308302704148984,-0.9181668913393972,4735.054919294838,21.76018133953584,2.3027041722018478,20.49562803452187,28.936634985229958,209.87818814,-3.7178263981,5.746850725491541,-12.31778908,6.076519966,18.394309046,-3.980155587,0.08828524976840584,-1.2242647741332153,468.4852638749187,6.844598336461525,2.164085005460898,14.40984079493867,32.569716974986584,37.178263981,1.0
0.1678673766,0.05729283691236492,0.083730042,0.252054214,0.168324172,0.1635619475,0.16226795875181066,-1.3609291528233625,0.31461925288033077,0.17737509771113047,2.025328002019416,0.07197694541891388,0.3900945543657141,1.678673766,-0.8652481436,0.09227381949835407,-1.010082722,-0.758974671,0.2511080509999999,-0.833344251,-0.6594079199728613,-1.2308424491654466,7.57168807768061,0.8701544735091931,2.025328817794687,0.19357742515471618,0.5952523530729404,8.652481436,-0.1582355083,0.0482132317233767,-0.230885953,-0.094846115,0.13603983800000002,-0.15476508449999998,-0.279802147521291,-1.2455495860439612,0.2736299180017138,0.16541762844440547,1.7480690719412453,0.0986305683018954,0.307386425203324,1.582355083,3.8228741647999995,2.3440103492141926,0.902592063,8.348641396,7.4460493329999995,3.210646868,0.8149034340336053,-0.3674847629910887,201.08751397118536,4.484278247067028,1.7481408149924957,9.90960301014537,10.310927174298714,38.228741647999996,-17.217307113799997,9.538314068170767,-27.86735916,-1.878145814,25.989213346,-18.267864225,0.5246212418052378,-1.1900450000971767,3874.1509951397247,19.682863092395184,1.7483010266500423,29.801486340650364,56.89505214132721,172.173071138,5.3094587081,8.629607180215368,-12.11250401,13.94645691,26.05896092,10.1153697975,-1.073578811087597,-0.3841146610001811,1026.6047185784355,10.132150406396638,1.7482874525976915,26.276961876508672,50.70033913678442,53.094587081,0.2000183388,0.0660479801814171,0.118198305,0.336743236,0.218544931,0.186041966,0.7259400206627243,-0.5451719029738231,0.44369671542356454,0.2106410965181212,2.302586953840518,0.1731688642299653,0.4210496409332909,2.000183388,0.843107307,0.11930343284480867,0.711155474,1.059635878,0.3484804039999999,0.7978939709999999,0.4961988032247106,-1.2097528456210327,7.25063240205348,0.8515064534138,2.0253297563265757,0.24066559413813504,0.7532784952950232,8.43107307,-0.2376921564,0.025212802463073933,-0.280750334,-0.199698642,0.08105169199999998,-0.230934456,-0.25286294856865343,-1.1756427402481842,0.5713324662212405,0.23902561917527596,2.0253271140195968,0.07670808831329068,0.15487056268441876,2.376921564,4.5129763182,3.4841072676165594,-0.732860386,10.98859596,11.721456346,3.6828626394999997,0.39725265892543554,-0.8462790958119317,325.0595870089256,5.701399714183576,2.164040987578599,15.289112284171658,16.609357366021094,45.129763182,9.4792595808,10.425686997610498,-5.780022621,26.93463898,32.714661600999996,9.127228735500001,0.15001454241493598,-1.0953268962533276,1985.5131157233313,14.090823665504198,2.30278171572762,35.000957070795536,56.77404961160562,94.792595808,-10.1554636949,3.473891407368359,-15.43915558,-4.902215004,10.536940576,-9.650068282500001,-0.04136867119981687,-1.3587605055778327,1152.013643686197,10.733189850581219,2.164032981932593,5.315083863045216,23.29035234527115,101.554636949,1.0
0.2496949463,0.07725867667556674,0.120186426,0.368321091,0.24813466499999998,0.252054214,-0.44234858620236145,-0.726900862179511,0.6831646932941965,0.26137419407703516,1.8343747903840402,0.3293643036194041,0.41361478504551497,2.496949463,-1.0248770953,0.12979954612165912,-1.240688682,-0.843950331,0.396738351,-1.010082722,-0.23445570615559416,-1.0602422989318951,10.672209826439541,1.03306388120191,1.834376358271002,0.49028096612526545,0.768637434048125,10.248770953,-0.191331105,0.050486328182711655,-0.244666159,-0.077122599,0.16754355999999998,-0.213929243,0.9884308370663404,-0.03522455145360093,0.39156461073893495,0.1978799157921124,1.8343739172188058,0.13082943431779,0.30959209833569973,1.91331105,-0.9181739923000001,6.36343534658546,-14.01080799,4.016601563,18.027409553,3.1372373104999998,-1.0159791513988687,-0.6324781568716249,413.3635289030933,6.429335338144163,1.4980384034163965,9.181739923,27.210592578815774,34.64896381194801,1.3814300186,13.480837344031833,-17.29792213,21.90094185,39.19886398,-1.878145814,0.17600940463034587,-1.1934391650918468,1836.4132439253244,13.551432558682954,1.834688474918228,14.346530857062842,40.537195807776726,84.01720092140991,3.3453558915999997,10.01136025529211,-12.79936314,13.94645691,26.74582005,10.4448061,-0.5052024848970463,-1.5475223480066334,1114.1874020270532,10.555507576744253,1.4981143274540287,23.82072704838683,33.453558916,64.80025591662664,0.2974800899,0.10613763834262907,0.144145712,0.453288496,0.30914278399999995,0.304959729,0.00017683684264091268,-1.4958281068533072,0.9975960215986281,0.31584743494266787,2.3025876716474976,0.17881983388722908,0.7026169930738968,2.974800899,1.0092606426,0.1307321136101539,0.829975426,1.220609784,0.3906343580000001,0.966609925,0.4587325900477473,-1.1414316530752633,10.35697930230343,1.0176924536569694,2.025330157241325,0.3224233902898682,0.8106165937391355,10.092606426,-0.32039677949999995,0.09376955937353809,-0.457566589,-0.199698642,0.25786794700000004,-0.3177073895,-0.15157761553941015,-1.432225192020487,1.1144682657907912,0.33383652672989383,2.025328883597222,0.24763741909435363,0.5646622946176759,3.2039677949999996,1.4055393042000008,8.590711720972672,-15.41355228,10.98859596,26.40214824,4.288814664,-1.0169954892310304,-0.351565582420136,757.7586860850827,8.70493357863851,2.3027466069363554,18.76556626838201,33.63745021275327,44.98062314191352,-6.0717606609,8.251702156324829,-19.24060631,7.970141411,27.210747721,-6.6759090425,0.1351486400558149,-0.9401463362076696,1049.5686599994863,10.24484582607023,2.302751142963179,29.22506854892075,42.695470872116765,60.71760660900001,-2.491296457899999,9.994543050854674,-15.43915558,12.8699007,28.30905628,-3.6530355215,0.10644726225825016,-1.5009964417586423,1060.9744883653257,10.300361587659559,2.1641480113328435,22.89256506505168,24.912964579,60.83919399745713,1.0
0.30122627910000005,0.028838676812328743,0.252054214,0.368321091,0.11626687699999999,0.295785755,0.7835591015511953,0.8462970107487329,0.9156894050071703,0.3026036029209121,1.8343733489701761,0.10964834637352691,0.14862586898000302,3.012262791,-1.0710625769,0.09017945739738967,-1.240688682,-0.948626757,0.29206192500000006,-1.045857191,-0.6577332766472622,-0.909348246655818,11.553073781721562,1.0748522587649691,1.6957460973855187,0.4053131604326931,0.4312463513622404,10.710625769,-0.15771989530000002,0.05417538657516815,-0.244666159,-0.077122599,0.16754355999999998,-0.149989769,-0.30038797291068287,-1.1478890770198475,0.2781053788401187,0.1667649180253805,1.8343739172188047,0.1633614045595679,0.3373135037124768,1.577198953,-1.8387948630999997,5.795275169590777,-14.01080799,3.210646868,17.221454858,0.660852551,-1.0294992527034157,-0.5061827270183006,369.6638083983836,6.0799984243286085,1.695903489247999,18.387948631,25.376269388521617,29.404443303584248,11.298280037000001,7.03272480250142,-1.878145814,21.90094185,23.779087664,13.22479439,-0.2635611061749361,-0.852057655643518,1771.1034994219135,13.30828125424885,1.8345716988968166,19.913535421092103,36.29531331326124,112.98280036999999,-1.4270711664000002,6.861254350309097,-12.79936314,10.4448061,23.244169239999998,-0.803314805,-0.08842905751600878,-0.9268542104073085,491.1334337360578,7.008091278915093,1.8345675497833782,14.270711664,21.6494693547261,39.02251042683717,0.33827031550000003,0.07223256847934212,0.240238726,0.453288496,0.21304976999999997,0.34282435450000004,-0.05060558330059983,-1.195325835168544,1.196443502975924,0.345896444470874,1.8343744127479933,0.18131615188893785,0.47008942729993664,3.3827031549999997,0.9433299601,0.17458939955455846,0.728249907,1.220609784,0.49235987700000006,0.9011168780000001,0.4642354183985402,-1.2125368563114949,9.20352872059089,0.9593502343039736,2.0253311139711943,0.6253734454201771,0.9946684906720061,9.433299601000002,-0.35521670590000004,0.08948858706900614,-0.484929681,-0.231392369,0.253537312,-0.3636140525,0.03115794307604909,-1.4026047299537345,1.3418711536605419,0.3663155953082726,2.0253288414541446,0.289312440245069,0.5106323477623013,3.5521670590000003,-10.806931602599999,10.065872588796868,-20.64823532,6.428546906,27.076782226000002,-15.588225365,0.7988769976480196,-1.1557873550905327,2181.115616371668,14.768600530760075,2.0255302102075885,31.05730338293296,61.14069625709786,108.06931602600001,-19.379696942699997,7.220203016236924,-27.04824066,-7.571795464,19.476445196,-22.07721329,0.43443596161434944,-1.4547821677058592,4277.039851865725,20.68100542010887,1.9731532872250341,13.740680544675268,45.949064255433555,193.796969427,7.184738341000001,5.069425158032417,-2.403856039,13.83489418,16.238750219,7.956408977500001,-0.5903750684409902,-0.7083546264909035,773.1953646152743,8.793152816909725,2.1640709610165216,8.900024038990333,33.74040163629075,71.84738340999999,1.0
0.26326030849999993,0.07380423038330775,0.044059731,0.30355233,0.259492599,0.28801918,-2.568258663661684,4.80523193043421,0.7475305445398753,0.27341004819499143,1.22061100600436,0.24826307153431593,0.25113829404339005,2.6326030849999995,-0.9902896880000002,0.07780795737957977,-1.045857191,-0.796066999,0.24979019200000008,-1.026382804,1.455958747132265,1.076497939102759,9.867277443907199,0.9933417057542283,1.2206108737268062,0.20826810619327968,0.4363440878620065,9.90289688,-0.1404792438,0.029285733856413025,-0.17837368,-0.088372283,0.09000139700000001,-0.149989769,0.4726346066240749,-0.9939888230985736,0.20592072146128496,0.1434993802987612,1.220608638465755,0.12502749486183085,0.13874773916084396,1.404792438,0.21756281830000002,1.4058828691362033,-1.815200806,2.084161282,3.899362088,0.660852551,-0.3614952765773761,-1.1768446089571656,20.23840221637282,1.4226173841329515,1.0297042068045248,2.2913481349941702,6.264961698972619,6.948879131255732,15.2434041026,7.302989327535393,6.453761578,28.61468887,22.160927291999997,13.22479439,0.8685288170628923,-0.3297765458554687,2856.9502175325833,16.902515249312994,1.2208479371572925,34.1293104279707,36.350080541630305,152.434041026,6.839010644,6.969966680938252,-0.803314805,19.16793823,19.971253035,3.75010252,0.7062545613697416,-1.105515980796774,953.5250212213468,9.764860578735094,1.220825819424857,28.374978552678424,35.36854486630085,68.39010644,0.2714751095,0.05704809115549453,0.206064627,0.377709568,0.171644941,0.247691646,0.7141230510510306,-0.9193300964423821,0.7695321978252261,0.27740443360285827,1.8343739621805644,0.13746101924157833,0.36370603366739546,2.714751095,0.8221995352,0.08648358426068543,0.728249907,0.98140645,0.253156543,0.782021284,0.9514248961194941,-0.5471080353686566,6.834914860296712,0.8267354389583593,1.8343748441616887,0.30089258035295235,0.5154699780576523,8.221995352,-0.2892465055,0.07385564098726334,-0.484929681,-0.231392369,0.253537312,-0.2559437005,-1.7662780269951208,2.063701511743438,0.8911819664960106,0.29852671011083926,1.8343748482365632,0.26129853859078495,0.3932813947740487,2.8924650549999997,-15.1669162267,4.127784905582688,-20.64823532,-7.4922328,13.156002520000001,-15.649916175,0.6861847145569968,-0.6534841233971047,2470.7395605449206,15.71858632493686,2.1640505953469926,12.229769894906495,24.713072945091444,151.66916226700002,-21.8635833741,5.456406808621833,-27.04824066,-8.816232681,18.232007979000002,-23.99623871,1.2862778570344298,0.6016183349781907,5077.886532173967,22.534166352838454,1.9731443053173354,15.81895578537566,29.999949085494528,218.635833741,-1.1104620300000003,9.824239574251234,-12.39823627,13.83489418,26.233130449999997,-3.73847501,0.2655021001363604,-1.5921427343178154,977.4880913235579,9.886799741693759,2.1641350049798644,15.271987340920274,18.570355332540917,63.42565931102982,1.0
0.1777355393,0.10063220169790298,0.042693339,0.28801918,0.245325841,0.1929628995,-0.2748972639378602,-1.6040935342722045,0.4171676194882927,0.2042468162513905,1.5571163540063733,0.15992057386486855,0.6551536458208602,1.7773553930000001,-0.9975409685000001,0.14138756301953162,-1.194023848,-0.796066999,0.39795684900000006,-0.9888603685,0.0007929420915736664,-1.3318101812527847,10.1507842681252,1.0075110058021797,1.748072090970938,0.34512775552336794,0.8956810168315931,9.975409684999999,-0.1779714915,0.0865553233889157,-0.386781156,-0.088372283,0.298408873,-0.16418172450000001,-1.1519880062454426,0.760982456306619,0.39165675793694354,0.19790319803806697,1.6957461703287857,0.2847520528793206,0.41706762457718544,1.7797149150000002,-0.5218285294000002,2.7878763649956033,-5.544712543,6.031806469,11.576519012,-1.0424562545,0.6987758176684115,1.1298693073916048,80.44559640596862,2.836293292414743,1.4186058462967013,8.866441848183504,10.566643824299701,11.506327998655708,10.9913308136,12.170971352726989,-6.796292305,28.61468887,35.410981174999996,13.22479439,-0.10283936259946416,-1.1216972592801417,2689.4189672289385,16.399448061532247,1.748378070647899,17.616989355688187,81.09630144185671,109.913308136,10.8556013348,7.409798051279769,-1.186192274,19.16793823,20.354130504,11.644373178999999,-0.16542095937699877,-1.577767540329991,1727.49187500861,13.143408519134638,1.6959303861070716,8.87716549875202,48.71211615240518,108.556013348,0.3496534468,0.10040005089329584,0.206064627,0.467058182,0.260993555,0.394196302,-0.3353211595277999,-1.6241909326610684,1.3233770307849684,0.3637824941891746,2.1639581030504798,0.22078923685997237,0.6214590697266824,3.496534468,0.9169611214,0.10810781065923047,0.756576955,1.041336298,0.28475934300000005,0.9790350495,-0.43967854728570704,-1.5176416653181544,8.525049968846774,0.9233119715917678,1.748070808720368,0.23234846213235638,0.690298828008271,9.169611214,-0.2849652706,0.044617870271817024,-0.348409772,-0.227128386,0.12128138600000002,-0.2697063235,-0.3049261916307368,-1.5133794125883993,0.8319595979572393,0.28843709850801774,2.163956844716287,0.09794232113845375,0.26679957682712985,2.849652706,-7.3847465508,6.525736542328047,-15.5369339,7.582136631,23.119070531,-7.9732067585,0.8248287880750397,0.3239410650159025,971.1971903942812,9.85493374099634,1.8345665783025398,23.89273031280711,28.659120470806442,73.847465508,-5.362839746200001,14.08681742315728,-23.07865715,18.93108749,42.00974464,-6.924871444500001,0.24568343558742756,-1.3184186006276861,2271.9847525678997,15.073104366944122,2.1642319813616573,32.146408488614064,53.62839746200001,83.80812222626349,-8.2937180692,3.7292653443777812,-12.39823627,-0.701535881,11.696700389,-9.668591025000001,0.7404277441110314,-0.6895165313924707,826.9317942015172,9.093579021493778,2.1640408209616346,9.758685635376358,23.600026400820735,82.937180692,1.0
0.13185965859999998,0.06867875151469041,0.042693339,0.237909883,0.195216544,0.1456257775,0.03443554343521908,-1.4507871656951536,0.22103740475725145,0.14867326752219157,1.7480697722567962,0.12765643098982285,0.4630263852726124,1.318596586,-0.9567565382,0.1661675190749403,-1.194023848,-0.747234941,0.44678890700000007,-0.9502943455,-0.18435432189959775,-1.4421793713754443,9.42994717783969,0.9710791511426703,1.886701661905847,0.21489612232150593,1.1175719873062693,9.567565382,-0.1786187032,0.09254061551996724,-0.386781156,-0.088372283,0.298408873,-0.1778325515,-0.8457276467954301,-0.05217670228670457,0.4046840665366409,0.20116760836094885,1.4184876302804237,0.21580368181760762,0.57562240540808,1.786187032,3.5502920300999996,4.857979748891232,-5.544712543,9.405890465,14.950603008000002,4.873008013,-0.42076135554375543,-1.0885720812285407,362.04540739628897,6.0170209189954535,2.025444183659422,16.228448070273757,26.765173475006662,35.502920300999996,-6.475913714399999,10.95072344804115,-18.46961975,16.17316818,34.64278793,-8.8571906075,0.855367471610606,-0.3648875169269399,1618.5580247183227,12.72225618637796,2.025582086979533,41.768196842175634,54.59396814210918,64.759137144,3.1767125848000006,9.502371709719759,-8.498875618,19.16793823,27.666813848,2.284659863,0.5004117945072423,-0.8630956707765689,1003.865709561091,10.019309904185473,1.8869245980730431,18.89017344354125,31.767125848000003,62.1345616388198,0.34207022719999997,0.13642154416709154,0.098172091,0.467058182,0.36888609099999997,0.4176522045,-0.7808082316449304,-1.0179745364799446,1.3562287804959332,0.36827011560754336,1.9730051609916988,0.3646566243844869,0.8405931103991428,3.4207022719999998,0.917875701,0.10853965976839444,0.740448534,1.041336298,0.30088776400000006,0.9790412185,-0.5152462444586692,-1.3697761029342268,8.542766602288802,0.9242708803315618,1.8343753522333435,0.28449061017512617,0.654438362274227,9.17875701,-0.26652932890000003,0.046183425907211216,-0.348409772,-0.214543357,0.13386641500000002,-0.249276526,-0.6916889380152198,-1.0262836746156685,0.7317079199241124,0.2705010018325464,2.0253276557758872,0.10837511981474317,0.2721611954361508,2.665293289,1.3646654845999997,6.404011825226388,-8.521174431,13.5577755,22.078949931,2.881028652,0.17060123736249355,-0.7371946425663496,428.7367934249796,6.547799580202342,2.1641086981373903,16.081164196638003,20.896462247072673,35.35752968797211,11.443255185199998,8.271951954127807,-5.033510208,24.28694725,29.320457458,10.220395565,-0.24983372782362828,-0.5135535604884112,1993.7327836500554,14.119960281991077,2.164154317339682,19.78162663241002,53.15718499205343,114.43255185199999,-6.761705458100001,4.397333851659084,-12.56999111,-0.364664733,12.205326377,-6.334120274,0.07225530882793946,-1.488348505559776,650.5720570504625,8.065804715280816,1.886803779294579,3.8939102537329338,30.72810389993872,67.617054581,1.0
0.10190347520000001,0.05897194448627979,0.046367742,0.206120878,0.15975313600000002,0.067496233,0.9760257926105391,-0.83307159736423,0.1386200849432988,0.11773703110886516,1.0889023658374912,0.2285509827566955,0.31554846533301134,1.019034752,-0.8209450724,0.10002591845694178,-0.99900949,-0.747234941,0.25177454900000007,-0.747234941,-0.908412464477231,-0.8039002949020602,6.83955996260996,0.8270163216412334,1.0889036511880275,0.33609613742999184,0.6165321078275532,8.209450724,-0.1252611087,0.050490247963621726,-0.216574043,-0.088540137,0.12803390599999998,-0.088540137,-0.9633153300100126,-0.6881549257235338,0.18239610492181224,0.13505410209312868,1.0889019138723106,0.1728986662612788,0.30889500797260716,1.252611087,8.1611213209,1.7923965769878576,3.714209557,9.405890465,5.691680908,9.405890465,-1.3799922655126473,0.9589067409631351,698.1658670364634,8.355632034959793,1.0889688736846836,5.354333464576297,9.426982928572004,81.611213209,-15.281096742899999,4.737086476715199,-18.46961975,-4.112177849,14.357441901,-18.46961975,1.2835589435289687,0.3574389753778817,2559.51905953747,15.998496990459667,1.0890631447260093,13.35106640386311,26.08064021235,152.81096742900002,0.06778693229999995,5.4686370658438985,-8.498875618,9.581688881,18.080564498999998,2.284659863,-0.31446254698613835,-0.7468495750221598,299.1058642611241,5.46905717890318,1.0891021215203762,12.983495191243584,22.51318656374796,24.217491161820686,0.191607108,0.1107217144893033,0.098172091,0.465609372,0.367437281,0.1540632545,1.4828169587908608,1.0404188506218608,0.48972581895574463,0.22129749636083654,1.8343760525210115,0.3331769462705583,0.6217931803699696,1.9160710799999998,0.8690048632,0.07994701993545877,0.740448534,0.981418788,0.24097025400000005,0.8818232115,-0.25130549618865095,-1.3380573805167224,7.6156097826181135,0.8726746119040082,1.9730039206035959,0.13639905173285974,0.5380119857816231,8.690048632,-0.22679375260000004,0.03367648211771956,-0.265855551,-0.172876418,0.09297913300000002,-0.232328467,0.3434850269183448,-1.2765442960198194,0.525695116662151,0.2292804214629219,1.6957437430306352,0.11213183634798621,0.1988446620250909,2.267937526,7.224957538499998,4.677910673459333,2.306927204,15.00067902,12.693751815999999,5.1850459575,0.7306063672035706,-1.2368626210202176,740.8285970199272,8.607140041964737,2.025427623241276,13.896803611347556,24.167647107474117,72.24957538500001,7.490076922999999,9.678537994334336,-4.201007843,24.28694725,28.487955093,6.252614975,0.3978343167271272,-1.1272904273311066,1497.7535002023046,12.238273980436558,2.1641491281805685,30.755269323745893,55.11733849734801,74.90076923,-8.463889068700002,3.8004363643278576,-13.63500786,-0.364664733,13.270343127,-8.9848895075,0.7181954426030143,-0.17206454109113345,860.807347265649,9.277970399099411,2.0254318755209515,12.526264695560618,21.486654112807795,84.638890687,1.0
0.0689585879,0.026660180503100386,0.030807413,0.117326453,0.08651903999999999,0.067496233,0.8042027240651136,-0.34192488064751325,0.05466052069619921,0.07393275369969605,1.4708097014474975,0.09487483840953839,0.11817141172570533,0.689585879,-0.8957235338,0.15158522202636202,-1.157384992,-0.747234941,0.4101500509999999,-0.8929746745,-0.6597308689036819,-0.8530574239384214,8.252987285399412,0.9084595359948296,1.4708138054261275,0.49219974029629193,0.8510268205171999,8.957235338,-0.1221674071,0.02779572683999383,-0.149219707,-0.088540137,0.06067957,-0.13676022,0.3379567395195343,-1.8033106728804655,0.15697477788100683,0.12528957573597527,1.054921177606944,0.05620452333881997,0.18006602027597413,1.2216740710000003,6.4384075164000025,4.41156193905127,-0.812779188,12.96279621,13.775575398,8.323794126500001,-0.47245285072339854,-0.963748845638416,609.1497008932183,7.804804295388952,1.4709511545202236,15.770289220733043,19.41493083171033,64.384075164,-4.173372459800001,13.60698994770613,-18.46961975,17.81201553,36.28163528,-2.582579613,0.39522304539584197,-1.1423010701163963,2025.6721312519273,14.232610903316115,1.4711578983643108,41.251947180288695,41.733724597999995,78.33210632572208,4.0161390313,5.172299994343515,-3.90283823,10.05028725,13.95312548,2.284659863,-0.19306145567265443,-1.294737659934044,428.82059950217223,6.548439504967365,1.2800099712120094,17.18339751891126,29.117094797268635,40.161390313,0.1849735766,0.05145419195966837,0.106266737,0.265634716,0.159367979,0.1911098655,-0.12590916122614298,-1.3041109169530403,0.3686275791041847,0.19199676536446772,1.7480693498133728,0.10221557552334168,0.3226800142181777,1.8497357659999998,0.9668240784,0.07636732279184644,0.817961931,1.069402933,0.2514410020000001,0.953798771,-0.1535859839922622,-0.6321320564649469,9.405807665644033,0.9698354327226879,1.5047916329202125,0.1409800928150973,0.4723356917343099,9.668240783999998,-0.2556495221,0.04927184387555919,-0.301906824,-0.172876418,0.12903040600000001,-0.2791471185,0.7725928815710288,-1.1471893301496794,0.6778439274885588,0.26035435995745465,1.4708102647376224,0.13653808403193712,0.3071029320939679,2.556495221,3.9533130174999997,7.193300505507627,-7.962957382,15.00067902,22.963636402,4.215934753,-0.2752357868149489,-0.5630280563777101,673.7225597687125,8.208060427218555,1.5573396897358052,29.461407970365556,31.99876043724492,39.533130175,-2.8748740672,3.25733333419872,-6.478389263,4.240434647,10.718823910000001,-3.9027472735,1.0243503970191148,-0.02459014414527827,188.75121352341222,4.344550765308333,1.8867916532445652,14.006942747666045,15.102264407170289,28.748740672000004,-5.517962551500001,6.04176663659838,-13.63500786,3.603215694,17.238223554,-8.301618576,0.6455128661333973,-1.1828129372274225,669.5085481086969,8.182350200942862,1.3140228434796555,22.844069852000523,31.177484358733263,55.179625515,1.0
0.0741615204,0.03987110905977019,0.015925493,0.117326453,0.10140096,0.0717455,-0.10629596876071187,-1.6633792524904503,0.07089636445695705,0.08419997889367731,1.470809900107557,0.1535785393531645,0.18493841807952885,0.741615204,-1.0059828819,0.12952645885449698,-1.157384992,-0.835030735,0.32235425699999987,-0.963731557,-0.14193992161164648,-1.6722454240552596,10.28778662219215,1.0142872680948012,1.4708127229250647,0.3404961702733554,0.7577832924791085,10.059828819,-0.12958565959999999,0.02083197227354423,-0.149219707,-0.082901739,0.066317968,-0.13676022,1.04941334219014,-0.062359566715730175,0.1722641424277279,0.13124943520934781,1.4184846186698383,0.0876685817476533,0.11253004527323854,1.2958565960000001,3.4939400671999996,4.251334486639036,-0.812779188,12.96279621,13.775575398,4.090788841,0.7463403830877485,-0.07956931429252201,302.81462110471927,5.502859448547812,1.6095702830571164,14.155581935653272,19.436254286654144,34.939400672,4.507707330000001,11.947851922196168,-13.99160194,17.81201553,31.80361747,1.209243402,-0.1340229476660728,-1.388356532060058,1630.7059092766242,12.769909589643241,1.2801882519570618,33.79502693847734,45.0770733,69.07014767711902,4.6812833794,7.092469536672147,-3.90283823,13.4248867,17.32772493,9.328019141999999,-0.33034134569877305,-1.770022473882505,722.175382068691,8.498090268223155,1.2800446354536836,13.801633976215568,45.219903611616715,46.812833794,0.1882334872,0.06713160237512054,0.05860167,0.265634716,0.207033046,0.2238759545,-0.8863479561951402,-0.818379462691726,0.39938497740923856,0.1998461852048316,1.6094405102116405,0.2018920960006874,0.3927816472736018,1.8823348720000002,0.9826081634000001,0.06381942782952264,0.852662742,1.069402933,0.21674019100000008,0.96497798,-0.19669651167186547,-0.3766453340749214,9.695917221488086,0.98467848668934,1.1682856208835506,0.18279396705211007,0.37287234893504045,9.826081634000001,-0.2665396274,0.04371158494870603,-0.301906824,-0.182362705,0.119544119,-0.292438686,1.020346995116455,-0.7584495859989668,0.7295407563325879,0.2701001214980452,1.2275311101805424,0.1543000530120609,0.24872898680436148,2.665396274,-3.7193429947,4.971666350690989,-7.962957382,4.215934753,12.178892135,-6.1712520125,0.7080419984755785,-1.2591366154750425,385.5097861481702,6.208943437881925,1.6095559908099237,13.874990509348681,30.138972827100513,37.193429947,-5.370737242500001,2.034498860808175,-9.183440208,-1.510114431,7.6733257770000005,-5.947197437,0.09996639169215948,-0.3175199219019964,329.8400414260627,5.743170217101899,1.6095147894664654,8.82597346430101,9.478501053793643,53.707372425,-2.9897627835000002,6.561577133589919,-11.73001003,3.603215694,15.333225724000002,-2.5586328510000005,-0.06917580831108683,-1.896187431954019,519.9297598165176,7.210615506435755,1.359396350873355,17.06453924443683,29.897627835,41.75839546212148,1.0
0.11216092020000001,0.05052180380828927,0.015925493,0.167850539,0.151925046,0.1204761785,-0.8367677841436099,-0.6005927409575036,0.15132524680154041,0.12301432713368814,2.025327837823497,0.15162696994755137,0.3012222673708556,1.1216092020000001,-1.0474063696,0.12149015706146549,-1.188243628,-0.835030735,0.3532128929999999,-1.1019355059999998,0.658657404447019,-1.0093269321865461,11.118199613414713,1.0544287369668333,1.886700694366223,0.40728496619932847,0.5947824272216345,10.474063695999998,-0.1070519449,0.03350461002437828,-0.139838368,-0.028189272,0.11164909599999999,-0.1167743765,1.1472216862964189,0.39524542110094574,0.12582677799758304,0.11217253585329301,1.8343732971538413,0.09943882522933663,0.1819466338897109,1.070519449,2.4958740294000004,3.625474202972435,-4.32417202,6.866977692,11.191149712,3.7141951320000004,-0.44616507109554515,-1.1061734702655075,193.73450367052004,4.401528185420605,1.8344714520805097,13.627346262085656,14.8580717309631,24.958740294000002,6.4823606697,11.314439890047302,-13.99160194,17.81201553,31.80361747,9.5345749835,-0.7666907253151031,-0.8278721315784363,1700.3754987756706,13.039844702969704,1.8869557796894814,38.889967019919744,57.846007219720114,64.823606697,-0.29637676140000035,8.723291533395026,-14.91135597,13.4248867,28.33624267,-2.153042957,0.08219726169464213,-1.0807238247193427,761.8365436129931,8.728324831335009,2.0255389254380347,7.018453143909885,17.112465657956204,58.40191760204027,0.1732689886,0.06431392647160207,0.05860167,0.244151667,0.185549997,0.193172283,-0.45298178029977865,-1.275994051548093,0.34158423548661565,0.1848199760541635,2.025328173460285,0.16690392837292412,0.40097833435209884,1.7326898860000002,0.9949602247000001,0.08953960199506014,0.852662742,1.162137628,0.30947488599999995,0.9673831765,0.5155582168480856,-0.5150638897903024,9.979631890605082,0.998981075426611,1.973004588900779,0.2945520576064492,0.5136857847124773,9.949602247000001,-0.2667510047,0.050841414910286244,-0.349203914,-0.182362705,0.166841209,-0.276738599,0.2061868737671295,-1.0209060982180633,0.7374094797853931,0.2715528456461823,2.1639572616649665,0.12236111414876333,0.31906687852870863,2.667510047,-2.4919594467,5.847422491509609,-7.962957382,9.317660332,17.280617714,-4.85512352,1.0563257373261385,-0.37380765062699783,404.0221167820982,6.356273411222162,2.02546106591915,23.14118003037799,24.919594467,32.882589042037765,-8.0655229808,2.9379584954301423,-11.96001244,-1.510114431,10.449898009,-9.110460758,0.8514941485977767,-0.03150857846739319,736.8426107468307,8.583953697142306,1.8867894456871541,10.121676681582246,16.518279958273215,80.655229808,-2.3451897385,6.270192053261817,-11.73001003,4.882917881,16.612927911,-0.874891162,-0.24296252945330052,-1.6437684537296977,448.1522329435335,6.694417322990355,1.9731325424448094,11.93954964797818,23.451897385000002,40.12172412387195,1.0
0.17651685769999997,0.03635359616456929,0.123625904,0.233467907,0.10984200300000001,0.16456677749999998,0.47245961826399485,-1.1557175854813833,0.32479785006378636,0.1802214887475371,1.6957439494569175,0.09451220327006467,0.21766791997102164,1.765168577,-1.0470648468,0.07910313596582019,-1.188243628,-0.89245218,0.2957914479999999,-1.0369299655,0.1157581959166829,-0.3746355102142389,11.026020995239344,1.0500486176953592,1.973004456212023,0.27418093254487225,0.36504422761964495,10.470648468,-0.0746550447,0.03903384341033523,-0.139838368,-0.028189272,0.11164909599999999,-0.059888644500000005,-0.507298514908317,-1.2219782548610258,0.0709701663054157,0.08424379283093544,1.8343732971538413,0.1103297457595888,0.2432682702139768,0.7465504470000001,-0.1661970435999999,4.964894433920011,-6.621788502,6.866977692,13.488766194,-0.374672681,0.1293833439534624,-1.5037072636168143,246.77798197271292,4.967675331306515,1.886814153448057,11.896874916531576,19.178684330752027,26.115656851771746,12.979560564899998,5.058983058216682,5.314272881,20.34712601,15.032853129,14.688645359999999,-0.28507863198097094,-1.2135790891732428,1940.6230204123062,13.930624610591968,2.0254447831332802,17.437669529867417,29.818916422472864,129.795605649,-5.7868169872,4.5159365456878096,-14.91135597,2.569236994,17.480592964,-6.083813906,-0.07451069375680487,0.09049577790008856,538.8093372802523,7.340363323979626,2.0254625056775133,15.182987400585512,25.109305094031843,57.868169872,0.23360963019999997,0.04794980249717284,0.142294973,0.305874348,0.16357937500000003,0.2414270045,-0.45877044364411507,-0.4517491877749831,0.5687264288169864,0.23847985844028557,2.1639572320669718,0.1796402358756488,0.2704260077651843,2.336096302,1.0128153743000001,0.09163086362921856,0.8738392,1.162137628,0.28829842799999994,1.0220283270000001,0.11387696615524963,-1.188647729979426,10.341911975878856,1.016951915081478,2.1639583431887974,0.31051122519367,0.48597632410119396,10.128153742999999,-0.33087317780000003,0.0674527066373019,-0.457062721,-0.248610869,0.208451852,-0.309316933,-0.523436300349168,-1.026145761419633,1.1402692742016833,0.33767873403601883,2.163957636373756,0.2321745186485457,0.3958997203629478,3.308731778,-1.6057918011999999,5.298267827136081,-6.681974411,9.317660332,15.999634743000001,-4.2539970875,1.1258646841824327,-0.252987606552876,306.5020927686642,5.536263114851607,1.9731280625110705,16.057918012,17.8136045048941,29.58959573408454,-10.4843374252,0.7306451003711287,-11.96001244,-9.037481308,2.9225311319999996,-10.579366685,-0.02431035874909351,0.2818349720452291,1104.551735081457,10.509765625747594,2.0253521425809073,2.4164885986272417,3.2848934326002723,104.843374252,6.4227636578,7.2063955826548005,-6.217914581,14.84888935,21.066803931,7.342430352999999,-0.4469131203745595,-1.1203802500591953,931.8403029766305,9.653187571867806,2.1641022262498817,17.584239528573605,44.25141026229244,64.227636578,1.0
